"","participant","session","expName","psychopyVersion","block_num","trial_num","corr","resp","rt","task","magnitude","num_big","has_neg","block_type","stim_name","stim_spec","enc_stimname","corr_key","encret_corr"
"1","6",1,"RetGoals_V1","2022.2.4",1,1,0,NA,NA,"Retrieval",NA,NA,NA,"40","1_192.jpg","building","Encod_Stim.192.jpeg",4,NA
"2","6",1,"RetGoals_V1","2022.2.4",1,1,0,2,0.811163285000191,"Encoding",NA,NA,NA,"40","Encod_Stim.268.jpeg","vehicle","",3,0
"3","6",1,"RetGoals_V1","2022.2.4",1,1,0,2,1.20511736399999,"External",1,8,NA,"40","ExAttn_Stim.268.jpeg","diamonds","",4,NA
"4","6",1,"RetGoals_V1","2022.2.4",1,1,0,NA,NA,"Internal",2,NA,0,"40","InternTask.268.jpeg","subsub","",4,NA
"5","6",1,"RetGoals_V1","2022.2.4",2,1,0,1,1.16928938400014,"Retrieval",NA,NA,NA,"40","1_230.jpg","fruit","Encod_Stim.230.jpeg",2,NA
"6","6",1,"RetGoals_V1","2022.2.4",2,1,1,2,1.02940817500001,"Encoding",NA,NA,NA,"40","Encod_Stim.033.jpeg","vehicle","",2,0
"7","6",1,"RetGoals_V1","2022.2.4",2,1,1,4,0.592640986000049,"External",2,7,NA,"40","ExAttn_Stim.033.jpeg","circles","",4,NA
"8","6",1,"RetGoals_V1","2022.2.4",2,1,1,4,1.33025646800019,"Internal",2,NA,0,"40","InternTask.033.jpeg","addadd","",4,NA
"9","6",1,"RetGoals_V1","2022.2.4",3,1,1,4,0.902568545000065,"Retrieval",NA,NA,NA,"40","1_91.jpg","building","Encod_Stim.091.jpeg",4,NA
"10","6",1,"RetGoals_V1","2022.2.4",3,1,1,3,1.20493830900017,"Encoding",NA,NA,NA,"40","Encod_Stim.299.jpeg","vehicle","",3,0
"11","6",1,"RetGoals_V1","2022.2.4",3,1,0,4,0.970337698000037,"External",0,8,NA,"40","ExAttn_Stim.299.jpeg","diamonds","",3,NA
"12","6",1,"RetGoals_V1","2022.2.4",3,1,0,2,1.14458049900026,"Internal",0,NA,0,"40","InternTask.299.jpeg","subsub","",3,NA
"13","6",1,"RetGoals_V1","2022.2.4",4,1,1,4,0.617053369000075,"Retrieval",NA,NA,NA,"40","1_175.jpg","building","Encod_Stim.175.jpeg",4,NA
"14","6",1,"RetGoals_V1","2022.2.4",4,1,0,NA,NA,"Encoding",NA,NA,NA,"40","Encod_Stim.257.jpeg","building","",3,0
"15","6",1,"RetGoals_V1","2022.2.4",4,1,0,3,1.33958238999998,"External",2,8,NA,"40","ExAttn_Stim.257.jpeg","diamonds","",2,NA
"16","6",1,"RetGoals_V1","2022.2.4",4,1,0,3,0.349491256999897,"Internal",2,NA,0,"40","InternTask.257.jpeg","subsub","",4,NA
"17","6",1,"RetGoals_V1","2022.2.4",5,1,1,2,1.2686467390003,"Retrieval",NA,NA,NA,"40","1_6.jpg","fruit","Encod_Stim.006.jpeg",2,NA
"18","6",1,"RetGoals_V1","2022.2.4",5,1,1,4,0.421260431999997,"Encoding",NA,NA,NA,"40","Encod_Stim.101.jpeg","fruit","",4,1
"19","6",1,"RetGoals_V1","2022.2.4",5,1,0,2,0.64152998000003,"External",0,5,NA,"40","ExAttn_Stim.101.jpeg","triangles","",3,NA
"20","6",1,"RetGoals_V1","2022.2.4",5,1,0,3,1.2568597519998,"Internal",2,NA,0,"40","InternTask.101.jpeg","addsub","",4,NA
"21","6",1,"RetGoals_V1","2022.2.4",6,1,1,2,0.672795914000233,"Retrieval",NA,NA,NA,"10","1_221.jpg","fruit","Encod_Stim.221.jpeg",2,NA
"22","6",1,"RetGoals_V1","2022.2.4",6,1,1,3,0.85243238400011,"Encoding",NA,NA,NA,"10","Encod_Stim.300.jpeg","vehicle","",3,0
"23","6",1,"RetGoals_V1","2022.2.4",6,1,0,4,1.2353344980001,"External",0,8,NA,"10","ExAttn_Stim.300.jpeg","diamonds","",3,NA
"24","6",1,"RetGoals_V1","2022.2.4",6,1,1,3,0.841345447000037,"Internal",0,NA,0,"10","InternTask.300.jpeg","subsub","",3,NA
"25","6",1,"RetGoals_V1","2022.2.4",7,1,0,1,1.31203976299997,"Retrieval",NA,NA,NA,"10","1_88.jpg","building","Encod_Stim.088.jpeg",4,NA
"26","6",1,"RetGoals_V1","2022.2.4",7,1,0,1,0.564990633999912,"Encoding",NA,NA,NA,"10","Encod_Stim.029.jpeg","fruit","",2,1
"27","6",1,"RetGoals_V1","2022.2.4",7,1,0,NA,NA,"External",1,8,NA,"10","ExAttn_Stim.029.jpeg","circles","",4,NA
"28","6",1,"RetGoals_V1","2022.2.4",7,1,1,4,0.702275651999969,"Internal",2,NA,0,"10","InternTask.029.jpeg","addadd","",4,NA
"29","6",1,"RetGoals_V1","2022.2.4",8,1,1,3,0.703242795000676,"Retrieval",NA,NA,NA,"10","1_59.jpg","vehicle","Encod_Stim.059.jpeg",3,NA
"30","6",1,"RetGoals_V1","2022.2.4",8,1,1,2,1.13585826799948,"Encoding",NA,NA,NA,"10","Encod_Stim.021.jpeg","fruit","",2,0
"31","6",1,"RetGoals_V1","2022.2.4",8,1,1,4,0.618779703000143,"External",1,6,NA,"10","ExAttn_Stim.021.jpeg","circles","",4,NA
"32","6",1,"RetGoals_V1","2022.2.4",8,1,0,NA,NA,"Internal",2,NA,0,"10","InternTask.021.jpeg","addadd","",2,NA
"33","6",1,"RetGoals_V1","2022.2.4",9,1,1,2,1.23399022899952,"Retrieval",NA,NA,NA,"10","1_213.jpg","fruit","Encod_Stim.213.jpeg",2,NA
"34","6",1,"RetGoals_V1","2022.2.4",9,1,1,3,1.1545864250001,"Encoding",NA,NA,NA,"10","Encod_Stim.261.jpeg","building","",3,0
"35","6",1,"RetGoals_V1","2022.2.4",9,1,1,4,1.25938011400007,"External",1,6,NA,"10","ExAttn_Stim.261.jpeg","diamonds","",4,NA
"36","6",1,"RetGoals_V1","2022.2.4",9,1,1,4,0.612459626000543,"Internal",2,NA,0,"10","InternTask.261.jpeg","subsub","",4,NA
"37","6",1,"RetGoals_V1","2022.2.4",10,1,1,3,1.10597161300024,"Retrieval",NA,NA,NA,"10","1_34.jpg","vehicle","Encod_Stim.034.jpeg",3,NA
"38","6",1,"RetGoals_V1","2022.2.4",10,1,0,1,1.22432761300018,"Encoding",NA,NA,NA,"10","Encod_Stim.149.jpeg","vehicle","",4,1
"39","6",1,"RetGoals_V1","2022.2.4",10,1,0,3,1.38600437700001,"External",1,8,NA,"10","ExAttn_Stim.149.jpeg","squares","",4,NA
"40","6",1,"RetGoals_V1","2022.2.4",10,1,1,3,0.444369843000402,"Internal",0,NA,0,"10","InternTask.149.jpeg","addsub","",3,NA
"41","6",1,"RetGoals_V1","2022.2.4",1,2,0,1,0.90586732100013,"Retrieval",NA,NA,NA,"40","1_66.jpg","vehicle","Encod_Stim.066.jpeg",3,NA
"42","6",1,"RetGoals_V1","2022.2.4",1,2,0,2,0.10672092700014,"Encoding",NA,NA,NA,"40","Encod_Stim.145.jpeg","vehicle","",4,1
"43","6",1,"RetGoals_V1","2022.2.4",1,2,0,2,0.665748382000061,"External",1,7,NA,"40","ExAttn_Stim.145.jpeg","squares","",4,NA
"44","6",1,"RetGoals_V1","2022.2.4",1,2,1,3,1.42198466200006,"Internal",0,NA,0,"40","InternTask.145.jpeg","addsub","",3,NA
"45","6",1,"RetGoals_V1","2022.2.4",2,2,0,NA,NA,"Retrieval",NA,NA,NA,"40","1_139.jpg","vehicle","Encod_Stim.139.jpeg",3,NA
"46","6",1,"RetGoals_V1","2022.2.4",2,2,0,4,1.02086555800014,"Encoding",NA,NA,NA,"40","Encod_Stim.259.jpeg","building","",3,0
"47","6",1,"RetGoals_V1","2022.2.4",2,2,0,3,0.813805519999903,"External",2,8,NA,"40","ExAttn_Stim.259.jpeg","diamonds","",2,NA
"48","6",1,"RetGoals_V1","2022.2.4",2,2,1,4,1.15914124700015,"Internal",6,NA,0,"40","InternTask.259.jpeg","subsub","",4,NA
"49","6",1,"RetGoals_V1","2022.2.4",3,2,1,4,1.11043919800017,"Retrieval",NA,NA,NA,"40","1_82.jpg","building","Encod_Stim.082.jpeg",4,NA
"50","6",1,"RetGoals_V1","2022.2.4",3,2,1,4,1.44402952099966,"Encoding",NA,NA,NA,"40","Encod_Stim.191.jpeg","building","",4,1
"51","6",1,"RetGoals_V1","2022.2.4",3,2,0,NA,NA,"External",2,7,NA,"40","ExAttn_Stim.191.jpeg","stars","",2,NA
"52","6",1,"RetGoals_V1","2022.2.4",3,2,1,4,0.558556762000023,"Internal",15,NA,1,"40","InternTask.191.jpeg","subadd","",4,NA
"53","6",1,"RetGoals_V1","2022.2.4",4,2,1,3,0.323612327999797,"Retrieval",NA,NA,NA,"40","1_52.jpg","vehicle","Encod_Stim.052.jpeg",3,NA
"54","6",1,"RetGoals_V1","2022.2.4",4,2,1,3,0.466878877999932,"Encoding",NA,NA,NA,"40","Encod_Stim.249.jpeg","building","",3,0
"55","6",1,"RetGoals_V1","2022.2.4",4,2,0,NA,NA,"External",1,8,NA,"40","ExAttn_Stim.249.jpeg","diamonds","",2,NA
"56","6",1,"RetGoals_V1","2022.2.4",4,2,1,2,1.20391691300023,"Internal",3,NA,0,"40","InternTask.249.jpeg","subsub","",2,NA
"57","6",1,"RetGoals_V1","2022.2.4",5,2,1,3,0.383230624000078,"Retrieval",NA,NA,NA,"40","1_60.jpg","vehicle","Encod_Stim.060.jpeg",3,NA
"58","6",1,"RetGoals_V1","2022.2.4",5,2,1,3,0.324813207000204,"Encoding",NA,NA,NA,"40","Encod_Stim.245.jpeg","building","",3,0
"59","6",1,"RetGoals_V1","2022.2.4",5,2,0,3,1.42754668600031,"External",1,7,NA,"40","ExAttn_Stim.245.jpeg","diamonds","",2,NA
"60","6",1,"RetGoals_V1","2022.2.4",5,2,1,2,0.6586407879999,"Internal",4,NA,2,"40","InternTask.245.jpeg","subsub","",2,NA
"61","6",1,"RetGoals_V1","2022.2.4",6,2,1,3,0.650413718999914,"Retrieval",NA,NA,NA,"10","1_138.jpg","vehicle","Encod_Stim.138.jpeg",3,NA
"62","6",1,"RetGoals_V1","2022.2.4",6,2,1,2,0.613736726999775,"Encoding",NA,NA,NA,"10","Encod_Stim.057.jpeg","vehicle","",2,1
"63","6",1,"RetGoals_V1","2022.2.4",6,2,0,2,0.0931651169998418,"External",0,8,NA,"10","ExAttn_Stim.057.jpeg","circles","",3,NA
"64","6",1,"RetGoals_V1","2022.2.4",6,2,1,3,0.42608554300017,"Internal",0,NA,0,"10","InternTask.057.jpeg","addadd","",3,NA
"65","6",1,"RetGoals_V1","2022.2.4",7,2,0,NA,NA,"Retrieval",NA,NA,NA,"10","1_291.jpg","vehicle","Encod_Stim.291.jpeg",4,NA
"66","6",1,"RetGoals_V1","2022.2.4",7,2,0,1,0.555984102999844,"Encoding",NA,NA,NA,"10","Encod_Stim.088.jpeg","building","",2,0
"67","6",1,"RetGoals_V1","2022.2.4",7,2,0,3,0.325358288000132,"External",1,8,NA,"10","ExAttn_Stim.088.jpeg","triangles","",4,NA
"68","6",1,"RetGoals_V1","2022.2.4",7,2,1,2,0.174675927000351,"Internal",12,NA,1,"10","InternTask.088.jpeg","addsub","",2,NA
"69","6",1,"RetGoals_V1","2022.2.4",8,2,1,4,0.319479576999527,"Retrieval",NA,NA,NA,"10","1_200.jpg","building","Encod_Stim.200.jpeg",4,NA
"70","6",1,"RetGoals_V1","2022.2.4",8,2,0,NA,NA,"Encoding",NA,NA,NA,"10","Encod_Stim.059.jpeg","vehicle","",2,1
"71","6",1,"RetGoals_V1","2022.2.4",8,2,1,3,0.910530670000242,"External",0,8,NA,"10","ExAttn_Stim.059.jpeg","circles","",3,NA
"72","6",1,"RetGoals_V1","2022.2.4",8,2,0,4,1.21730759100041,"Internal",0,NA,0,"10","InternTask.059.jpeg","addadd","",3,NA
"73","6",1,"RetGoals_V1","2022.2.4",9,2,1,2,0.372133841000448,"Retrieval",NA,NA,NA,"10","1_121.jpg","fruit","Encod_Stim.121.jpeg",2,NA
"74","6",1,"RetGoals_V1","2022.2.4",9,2,1,2,1.39271403000015,"Encoding",NA,NA,NA,"10","Encod_Stim.079.jpeg","building","",2,1
"75","6",1,"RetGoals_V1","2022.2.4",9,2,1,2,0.452991782999504,"External",2,8,NA,"10","ExAttn_Stim.079.jpeg","triangles","",2,NA
"76","6",1,"RetGoals_V1","2022.2.4",9,2,1,2,0.568566597999904,"Internal",3,NA,0,"10","InternTask.079.jpeg","addsub","",2,NA
"77","6",1,"RetGoals_V1","2022.2.4",10,2,0,4,0.289509347000546,"Retrieval",NA,NA,NA,"10","1_235.jpg","building","Encod_Stim.235.jpeg",3,NA
"78","6",1,"RetGoals_V1","2022.2.4",10,2,0,NA,NA,"Encoding",NA,NA,NA,"10","Encod_Stim.034.jpeg","vehicle","",2,1
"79","6",1,"RetGoals_V1","2022.2.4",10,2,0,3,1.21380252100056,"External",2,7,NA,"10","ExAttn_Stim.034.jpeg","circles","",4,NA
"80","6",1,"RetGoals_V1","2022.2.4",10,2,1,4,0.407001573999821,"Internal",10,NA,0,"10","InternTask.034.jpeg","addadd","",4,NA
"81","6",1,"RetGoals_V1","2022.2.4",1,3,1,2,1.4512972469999,"Retrieval",NA,NA,NA,"40","1_204.jpg","fruit","Encod_Stim.204.jpeg",2,NA
"82","6",1,"RetGoals_V1","2022.2.4",1,3,0,2,0.63578934800006,"Encoding",NA,NA,NA,"40","Encod_Stim.154.jpeg","vehicle","",4,0
"83","6",1,"RetGoals_V1","2022.2.4",1,3,0,2,0.379169228000023,"External",2,7,NA,"40","ExAttn_Stim.154.jpeg","squares","",4,NA
"84","6",1,"RetGoals_V1","2022.2.4",1,3,1,2,0.963058492000016,"Internal",1,NA,0,"40","InternTask.154.jpeg","subadd","",2,NA
"85","6",1,"RetGoals_V1","2022.2.4",2,3,0,4,0.55078414899998,"Retrieval",NA,NA,NA,"40","1_33.jpg","vehicle","Encod_Stim.033.jpeg",3,NA
"86","6",1,"RetGoals_V1","2022.2.4",2,3,1,4,0.605052622000073,"Encoding",NA,NA,NA,"40","Encod_Stim.102.jpeg","fruit","",4,1
"87","6",1,"RetGoals_V1","2022.2.4",2,3,0,4,0.833948218000103,"External",0,5,NA,"40","ExAttn_Stim.102.jpeg","triangles","",3,NA
"88","6",1,"RetGoals_V1","2022.2.4",2,3,1,4,0.597033883999927,"Internal",2,NA,0,"40","InternTask.102.jpeg","addsub","",4,NA
"89","6",1,"RetGoals_V1","2022.2.4",3,3,1,4,0.351906363000069,"Retrieval",NA,NA,NA,"40","1_191.jpg","building","Encod_Stim.191.jpeg",4,NA
"90","6",1,"RetGoals_V1","2022.2.4",3,3,1,4,0.404196696999804,"Encoding",NA,NA,NA,"40","Encod_Stim.179.jpeg","building","",4,1
"91","6",1,"RetGoals_V1","2022.2.4",3,3,0,2,0.287701757999855,"External",0,8,NA,"40","ExAttn_Stim.179.jpeg","squares","",3,NA
"92","6",1,"RetGoals_V1","2022.2.4",3,3,1,4,0.334312234000151,"Internal",13,NA,1,"40","InternTask.179.jpeg","subadd","",4,NA
"93","6",1,"RetGoals_V1","2022.2.4",4,3,1,3,0.579343284000004,"Retrieval",NA,NA,NA,"40","1_165.jpg","vehicle","Encod_Stim.165.jpeg",3,NA
"94","6",1,"RetGoals_V1","2022.2.4",4,3,1,2,0.896402984000304,"Encoding",NA,NA,NA,"40","Encod_Stim.062.jpeg","vehicle","",2,1
"95","6",1,"RetGoals_V1","2022.2.4",4,3,1,2,0.425292880000086,"External",1,6,NA,"40","ExAttn_Stim.062.jpeg","triangles","",2,NA
"96","6",1,"RetGoals_V1","2022.2.4",4,3,1,3,1.31181053099994,"Internal",0,NA,0,"40","InternTask.062.jpeg","addadd","",3,NA
"97","6",1,"RetGoals_V1","2022.2.4",5,3,1,4,0.333322127999907,"Retrieval",NA,NA,NA,"40","1_193.jpg","building","Encod_Stim.193.jpeg",4,NA
"98","6",1,"RetGoals_V1","2022.2.4",5,3,1,3,1.13412572500005,"Encoding",NA,NA,NA,"40","Encod_Stim.278.jpeg","vehicle","",3,0
"99","6",1,"RetGoals_V1","2022.2.4",5,3,1,4,0.335201266000183,"External",2,8,NA,"40","ExAttn_Stim.278.jpeg","diamonds","",4,NA
"100","6",1,"RetGoals_V1","2022.2.4",5,3,0,2,1.46087755000002,"Internal",0,NA,0,"40","InternTask.278.jpeg","subsub","",3,NA
"101","6",1,"RetGoals_V1","2022.2.4",6,3,0,3,0.414152413999943,"Retrieval",NA,NA,NA,"10","1_300.jpg","vehicle","Encod_Stim.300.jpeg",4,NA
"102","6",1,"RetGoals_V1","2022.2.4",6,3,1,4,0.356792520999932,"Encoding",NA,NA,NA,"10","Encod_Stim.141.jpeg","vehicle","",4,1
"103","6",1,"RetGoals_V1","2022.2.4",6,3,0,3,0.648535127999764,"External",1,6,NA,"10","ExAttn_Stim.141.jpeg","squares","",4,NA
"104","6",1,"RetGoals_V1","2022.2.4",6,3,1,3,0.285293575000139,"Internal",0,NA,0,"10","InternTask.141.jpeg","addsub","",3,NA
"105","6",1,"RetGoals_V1","2022.2.4",7,3,0,1,1.06638758699995,"Retrieval",NA,NA,NA,"10","1_94.jpg","building","Encod_Stim.094.jpeg",4,NA
"106","6",1,"RetGoals_V1","2022.2.4",7,3,0,1,0.411593761999882,"Encoding",NA,NA,NA,"10","Encod_Stim.129.jpeg","fruit","",4,0
"107","6",1,"RetGoals_V1","2022.2.4",7,3,1,2,0.0453298030001292,"External",1,8,NA,"10","ExAttn_Stim.129.jpeg","squares","",2,NA
"108","6",1,"RetGoals_V1","2022.2.4",7,3,1,3,0.245385754999859,"Internal",0,NA,0,"10","InternTask.129.jpeg","addsub","",3,NA
"109","6",1,"RetGoals_V1","2022.2.4",8,3,0,3,0.59030185899968,"Retrieval",NA,NA,NA,"10","1_21.jpg","fruit","Encod_Stim.021.jpeg",2,NA
"110","6",1,"RetGoals_V1","2022.2.4",8,3,1,3,0.518654164999987,"Encoding",NA,NA,NA,"10","Encod_Stim.288.jpeg","vehicle","",3,0
"111","6",1,"RetGoals_V1","2022.2.4",8,3,1,3,0.311207145999958,"External",0,6,NA,"10","ExAttn_Stim.288.jpeg","diamonds","",3,NA
"112","6",1,"RetGoals_V1","2022.2.4",8,3,1,3,0.469368163000524,"Internal",0,NA,0,"10","InternTask.288.jpeg","subsub","",3,NA
"113","6",1,"RetGoals_V1","2022.2.4",9,3,1,2,0.537896986999783,"Retrieval",NA,NA,NA,"10","1_22.jpg","fruit","Encod_Stim.022.jpeg",2,NA
"114","6",1,"RetGoals_V1","2022.2.4",9,3,1,3,0.634985329000244,"Encoding",NA,NA,NA,"10","Encod_Stim.213.jpeg","fruit","",3,1
"115","6",1,"RetGoals_V1","2022.2.4",9,3,0,3,0.191443872000434,"External",2,7,NA,"10","ExAttn_Stim.213.jpeg","stars","",4,NA
"116","6",1,"RetGoals_V1","2022.2.4",9,3,1,3,0.222828968000556,"Internal",0,NA,0,"10","InternTask.213.jpeg","subadd","",3,NA
"117","6",1,"RetGoals_V1","2022.2.4",10,3,0,3,0.394510571000808,"Retrieval",NA,NA,NA,"10","1_76.jpg","building","Encod_Stim.076.jpeg",4,NA
"118","6",1,"RetGoals_V1","2022.2.4",10,3,1,2,0.914168860999723,"Encoding",NA,NA,NA,"10","Encod_Stim.076.jpeg","building","",2,0
"119","6",1,"RetGoals_V1","2022.2.4",10,3,1,2,0.609601414999759,"External",2,8,NA,"10","ExAttn_Stim.076.jpeg","triangles","",2,NA
"120","6",1,"RetGoals_V1","2022.2.4",10,3,1,2,0.524344812999459,"Internal",9,NA,0,"10","InternTask.076.jpeg","addsub","",2,NA
"121","6",1,"RetGoals_V1","2022.2.4",1,4,0,NA,NA,"Retrieval",NA,NA,NA,"40","1_153.jpg","vehicle","Encod_Stim.153.jpeg",3,NA
"122","6",1,"RetGoals_V1","2022.2.4",1,4,0,NA,NA,"Encoding",NA,NA,NA,"40","Encod_Stim.271.jpeg","vehicle","",3,0
"123","6",1,"RetGoals_V1","2022.2.4",1,4,1,4,0.562056121000069,"External",2,7,NA,"40","ExAttn_Stim.271.jpeg","diamonds","",4,NA
"124","6",1,"RetGoals_V1","2022.2.4",1,4,0,NA,NA,"Internal",2,NA,2,"40","InternTask.271.jpeg","subsub","",4,NA
"125","6",1,"RetGoals_V1","2022.2.4",2,4,1,4,0.550202862000049,"Retrieval",NA,NA,NA,"40","1_177.jpg","building","Encod_Stim.177.jpeg",4,NA
"126","6",1,"RetGoals_V1","2022.2.4",2,4,1,4,0.668289937000225,"Encoding",NA,NA,NA,"40","Encod_Stim.197.jpeg","building","",4,1
"127","6",1,"RetGoals_V1","2022.2.4",2,4,0,3,0.773326536999946,"External",2,8,NA,"40","ExAttn_Stim.197.jpeg","stars","",2,NA
"128","6",1,"RetGoals_V1","2022.2.4",2,4,0,3,0.658601353999927,"Internal",1,NA,0,"40","InternTask.197.jpeg","subadd","",4,NA
"129","6",1,"RetGoals_V1","2022.2.4",3,4,1,3,0.814011968000102,"Retrieval",NA,NA,NA,"40","1_137.jpg","vehicle","Encod_Stim.137.jpeg",3,NA
"130","6",1,"RetGoals_V1","2022.2.4",3,4,1,3,0.990900939000255,"Encoding",NA,NA,NA,"40","Encod_Stim.274.jpeg","vehicle","",3,0
"131","6",1,"RetGoals_V1","2022.2.4",3,4,1,4,0.576604979000138,"External",2,7,NA,"40","ExAttn_Stim.274.jpeg","diamonds","",4,NA
"132","6",1,"RetGoals_V1","2022.2.4",3,4,1,4,0.918240525000272,"Internal",2,NA,0,"40","InternTask.274.jpeg","subsub","",4,NA
"133","6",1,"RetGoals_V1","2022.2.4",4,4,1,4,0.30553729900015,"Retrieval",NA,NA,NA,"40","1_180.jpg","building","Encod_Stim.180.jpeg",4,NA
"134","6",1,"RetGoals_V1","2022.2.4",4,4,1,2,0.418774681999764,"Encoding",NA,NA,NA,"40","Encod_Stim.071.jpeg","building","",2,1
"135","6",1,"RetGoals_V1","2022.2.4",4,4,0,3,0.269323352999834,"External",2,7,NA,"40","ExAttn_Stim.071.jpeg","triangles","",2,NA
"136","6",1,"RetGoals_V1","2022.2.4",4,4,1,3,0.438814448000301,"Internal",0,NA,0,"40","InternTask.071.jpeg","addadd","",3,NA
"137","6",1,"RetGoals_V1","2022.2.4",5,4,0,3,0.306839281000009,"Retrieval",NA,NA,NA,"40","1_282.jpg","vehicle","Encod_Stim.282.jpeg",4,NA
"138","6",1,"RetGoals_V1","2022.2.4",5,4,1,2,0.573011565000286,"Encoding",NA,NA,NA,"40","Encod_Stim.080.jpeg","building","",2,0
"139","6",1,"RetGoals_V1","2022.2.4",5,4,0,3,0.439255957000057,"External",2,8,NA,"40","ExAttn_Stim.080.jpeg","triangles","",2,NA
"140","6",1,"RetGoals_V1","2022.2.4",5,4,1,2,0.590243964000308,"Internal",4,NA,0,"40","InternTask.080.jpeg","addsub","",2,NA
"141","6",1,"RetGoals_V1","2022.2.4",6,4,1,3,0.288881623000123,"Retrieval",NA,NA,NA,"10","1_57.jpg","vehicle","Encod_Stim.057.jpeg",3,NA
"142","6",1,"RetGoals_V1","2022.2.4",6,4,1,2,0.788771596000004,"Encoding",NA,NA,NA,"10","Encod_Stim.017.jpeg","fruit","",2,1
"143","6",1,"RetGoals_V1","2022.2.4",6,4,0,3,0.473919243000125,"External",2,8,NA,"10","ExAttn_Stim.017.jpeg","circles","",2,NA
"144","6",1,"RetGoals_V1","2022.2.4",6,4,0,3,0.310876796000173,"Internal",1,NA,0,"10","InternTask.017.jpeg","addadd","",2,NA
"145","6",1,"RetGoals_V1","2022.2.4",7,4,0,1,0.689205647000051,"Retrieval",NA,NA,NA,"10","1_106.jpg","fruit","Encod_Stim.106.jpeg",2,NA
"146","6",1,"RetGoals_V1","2022.2.4",7,4,0,1,0.843348244000424,"Encoding",NA,NA,NA,"10","Encod_Stim.097.jpeg","building","",2,1
"147","6",1,"RetGoals_V1","2022.2.4",7,4,1,4,0.0502363919999311,"External",2,8,NA,"10","ExAttn_Stim.097.jpeg","triangles","",4,NA
"148","6",1,"RetGoals_V1","2022.2.4",7,4,1,2,0.423727709000048,"Internal",12,NA,0,"10","InternTask.097.jpeg","addsub","",2,NA
"149","6",1,"RetGoals_V1","2022.2.4",8,4,0,3,0.316732590999834,"Retrieval",NA,NA,NA,"10","1_288.jpg","vehicle","Encod_Stim.288.jpeg",4,NA
"150","6",1,"RetGoals_V1","2022.2.4",8,4,1,2,0.839407773999426,"Encoding",NA,NA,NA,"10","Encod_Stim.072.jpeg","building","",2,1
"151","6",1,"RetGoals_V1","2022.2.4",8,4,0,3,0.20743701799978,"External",2,7,NA,"10","ExAttn_Stim.072.jpeg","triangles","",2,NA
"152","6",1,"RetGoals_V1","2022.2.4",8,4,0,2,0.766862608999816,"Internal",0,NA,0,"10","InternTask.072.jpeg","addadd","",3,NA
"153","6",1,"RetGoals_V1","2022.2.4",9,4,0,4,0.320969907999768,"Retrieval",NA,NA,NA,"10","1_261.jpg","building","Encod_Stim.261.jpeg",3,NA
"154","6",1,"RetGoals_V1","2022.2.4",9,4,1,3,0.352929771000106,"Encoding",NA,NA,NA,"10","Encod_Stim.232.jpeg","fruit","",3,1
"155","6",1,"RetGoals_V1","2022.2.4",9,4,1,3,0.469112071999859,"External",0,7,NA,"10","ExAttn_Stim.232.jpeg","stars","",3,NA
"156","6",1,"RetGoals_V1","2022.2.4",9,4,1,2,0.122826290000319,"Internal",3,NA,0,"10","InternTask.232.jpeg","subsub","",2,NA
"157","6",1,"RetGoals_V1","2022.2.4",10,4,1,3,0.304208004999907,"Retrieval",NA,NA,NA,"10","1_146.jpg","vehicle","Encod_Stim.146.jpeg",3,NA
"158","6",1,"RetGoals_V1","2022.2.4",10,4,0,NA,NA,"Encoding",NA,NA,NA,"10","Encod_Stim.264.jpeg","building","",3,0
"159","6",1,"RetGoals_V1","2022.2.4",10,4,1,4,0.222753423000484,"External",1,7,NA,"10","ExAttn_Stim.264.jpeg","diamonds","",4,NA
"160","6",1,"RetGoals_V1","2022.2.4",10,4,1,4,0.64314311100037,"Internal",2,NA,0,"10","InternTask.264.jpeg","subsub","",4,NA
"161","6",1,"RetGoals_V1","2022.2.4",1,5,0,1,0.550057672000037,"Retrieval",NA,NA,NA,"40","1_37.jpg","vehicle","Encod_Stim.037.jpeg",3,NA
"162","6",1,"RetGoals_V1","2022.2.4",1,5,1,4,0.31657723300026,"Encoding",NA,NA,NA,"40","Encod_Stim.163.jpeg","vehicle","",4,1
"163","6",1,"RetGoals_V1","2022.2.4",1,5,0,NA,NA,"External",0,5,NA,"40","ExAttn_Stim.163.jpeg","squares","",3,NA
"164","6",1,"RetGoals_V1","2022.2.4",1,5,1,2,1.13605133699997,"Internal",2,NA,0,"40","InternTask.163.jpeg","subadd","",2,NA
"165","6",1,"RetGoals_V1","2022.2.4",2,5,1,2,0.988191825000001,"Retrieval",NA,NA,NA,"40","1_115.jpg","fruit","Encod_Stim.115.jpeg",2,NA
"166","6",1,"RetGoals_V1","2022.2.4",2,5,1,2,0.36707417700012,"Encoding",NA,NA,NA,"40","Encod_Stim.025.jpeg","fruit","",2,0
"167","6",1,"RetGoals_V1","2022.2.4",2,5,1,4,0.338568603000056,"External",1,7,NA,"40","ExAttn_Stim.025.jpeg","circles","",4,NA
"168","6",1,"RetGoals_V1","2022.2.4",2,5,0,1,0.205318348000162,"Internal",6,NA,0,"40","InternTask.025.jpeg","addadd","",2,NA
"169","6",1,"RetGoals_V1","2022.2.4",3,5,1,4,0.497278453000433,"Retrieval",NA,NA,NA,"40","1_185.jpg","building","Encod_Stim.185.jpeg",4,NA
"170","6",1,"RetGoals_V1","2022.2.4",3,5,1,2,0.950423162999812,"Encoding",NA,NA,NA,"40","Encod_Stim.015.jpeg","fruit","",2,1
"171","6",1,"RetGoals_V1","2022.2.4",3,5,0,3,0.389893665999978,"External",2,7,NA,"40","ExAttn_Stim.015.jpeg","circles","",2,NA
"172","6",1,"RetGoals_V1","2022.2.4",3,5,1,2,1.15079285399992,"Internal",5,NA,0,"40","InternTask.015.jpeg","addadd","",2,NA
"173","6",1,"RetGoals_V1","2022.2.4",4,5,1,4,0.0745423890002144,"Retrieval",NA,NA,NA,"40","1_188.jpg","building","Encod_Stim.188.jpeg",4,NA
"174","6",1,"RetGoals_V1","2022.2.4",4,5,1,3,0.785906736000413,"Encoding",NA,NA,NA,"40","Encod_Stim.238.jpeg","building","",3,0
"175","6",1,"RetGoals_V1","2022.2.4",4,5,0,4,0.471488241000259,"External",0,8,NA,"40","ExAttn_Stim.238.jpeg","stars","",3,NA
"176","6",1,"RetGoals_V1","2022.2.4",4,5,1,2,0.900441186000023,"Internal",1,NA,0,"40","InternTask.238.jpeg","subsub","",2,NA
"177","6",1,"RetGoals_V1","2022.2.4",5,5,1,2,0.324218637999763,"Retrieval",NA,NA,NA,"40","1_203.jpg","fruit","Encod_Stim.203.jpeg",2,NA
"178","6",1,"RetGoals_V1","2022.2.4",5,5,1,4,0.725358151999842,"Encoding",NA,NA,NA,"40","Encod_Stim.109.jpeg","fruit","",4,1
"179","6",1,"RetGoals_V1","2022.2.4",5,5,1,3,0.434436820999906,"External",0,6,NA,"40","ExAttn_Stim.109.jpeg","triangles","",3,NA
"180","6",1,"RetGoals_V1","2022.2.4",5,5,1,4,0.299371380000082,"Internal",1,NA,0,"40","InternTask.109.jpeg","addsub","",4,NA
"181","6",1,"RetGoals_V1","2022.2.4",6,5,1,3,0.306624307000163,"Retrieval",NA,NA,NA,"10","1_64.jpg","vehicle","Encod_Stim.064.jpeg",3,NA
"182","6",1,"RetGoals_V1","2022.2.4",6,5,1,3,0.893610035000108,"Encoding",NA,NA,NA,"10","Encod_Stim.215.jpeg","fruit","",3,1
"183","6",1,"RetGoals_V1","2022.2.4",6,5,1,4,0.333045393999726,"External",2,7,NA,"10","ExAttn_Stim.215.jpeg","stars","",4,NA
"184","6",1,"RetGoals_V1","2022.2.4",6,5,1,3,0.29752369800002,"Internal",0,NA,0,"10","InternTask.215.jpeg","subadd","",3,NA
"185","6",1,"RetGoals_V1","2022.2.4",7,5,0,NA,NA,"Retrieval",NA,NA,NA,"10","1_129.jpg","fruit","Encod_Stim.129.jpeg",2,NA
"186","6",1,"RetGoals_V1","2022.2.4",7,5,0,1,0.380874157000051,"Encoding",NA,NA,NA,"10","Encod_Stim.291.jpeg","vehicle","",3,0
"187","6",1,"RetGoals_V1","2022.2.4",7,5,1,3,0.43042320499984,"External",0,7,NA,"10","ExAttn_Stim.291.jpeg","diamonds","",3,NA
"188","6",1,"RetGoals_V1","2022.2.4",7,5,0,NA,NA,"Internal",0,NA,2,"10","InternTask.291.jpeg","subsub","",3,NA
"189","6",1,"RetGoals_V1","2022.2.4",8,5,0,3,0.356096691999426,"Retrieval",NA,NA,NA,"10","1_298.jpg","vehicle","Encod_Stim.298.jpeg",4,NA
"190","6",1,"RetGoals_V1","2022.2.4",8,5,1,3,0.959851618999835,"Encoding",NA,NA,NA,"10","Encod_Stim.226.jpeg","fruit","",3,0
"191","6",1,"RetGoals_V1","2022.2.4",8,5,1,3,0.316271150999853,"External",0,6,NA,"10","ExAttn_Stim.226.jpeg","stars","",3,NA
"192","6",1,"RetGoals_V1","2022.2.4",8,5,0,3,0.589310364000028,"Internal",8,NA,1,"10","InternTask.226.jpeg","subsub","",2,NA
"193","6",1,"RetGoals_V1","2022.2.4",9,5,1,4,0.36977271400059,"Retrieval",NA,NA,NA,"10","1_79.jpg","building","Encod_Stim.079.jpeg",4,NA
"194","6",1,"RetGoals_V1","2022.2.4",9,5,1,4,0.385151039000391,"Encoding",NA,NA,NA,"10","Encod_Stim.121.jpeg","fruit","",4,1
"195","6",1,"RetGoals_V1","2022.2.4",9,5,0,3,1.40809232100031,"External",1,6,NA,"10","ExAttn_Stim.121.jpeg","squares","",2,NA
"196","6",1,"RetGoals_V1","2022.2.4",9,5,1,4,0.866498583999544,"Internal",1,NA,0,"10","InternTask.121.jpeg","addsub","",4,NA
"197","6",1,"RetGoals_V1","2022.2.4",10,5,1,4,0.280107011999405,"Retrieval",NA,NA,NA,"10","1_75.jpg","building","Encod_Stim.075.jpeg",4,NA
"198","6",1,"RetGoals_V1","2022.2.4",10,5,1,3,0.130272119000381,"Encoding",NA,NA,NA,"10","Encod_Stim.235.jpeg","building","",3,0
"199","6",1,"RetGoals_V1","2022.2.4",10,5,1,3,0.35468212399968,"External",0,7,NA,"10","ExAttn_Stim.235.jpeg","stars","",3,NA
"200","6",1,"RetGoals_V1","2022.2.4",10,5,1,2,0.583457172000578,"Internal",7,NA,1,"10","InternTask.235.jpeg","subsub","",2,NA
"201","6",1,"RetGoals_V1","2022.2.4",1,6,1,4,0.539262506000057,"Retrieval",NA,NA,NA,"40","1_68.jpg","building","Encod_Stim.068.jpeg",4,NA
"202","6",1,"RetGoals_V1","2022.2.4",1,6,1,4,0.300787953999986,"Encoding",NA,NA,NA,"40","Encod_Stim.159.jpeg","vehicle","",4,0
"203","6",1,"RetGoals_V1","2022.2.4",1,6,1,4,0.233982480000009,"External",2,8,NA,"40","ExAttn_Stim.159.jpeg","squares","",4,NA
"204","6",1,"RetGoals_V1","2022.2.4",1,6,1,2,0.49420995700001,"Internal",1,NA,0,"40","InternTask.159.jpeg","subadd","",2,NA
"205","6",1,"RetGoals_V1","2022.2.4",2,6,0,4,0.913535301000081,"Retrieval",NA,NA,NA,"40","1_25.jpg","fruit","Encod_Stim.025.jpeg",2,NA
"206","6",1,"RetGoals_V1","2022.2.4",2,6,1,2,1.37311056100015,"Encoding",NA,NA,NA,"40","Encod_Stim.077.jpeg","building","",2,1
"207","6",1,"RetGoals_V1","2022.2.4",2,6,1,2,0.138285634000056,"External",2,8,NA,"40","ExAttn_Stim.077.jpeg","triangles","",2,NA
"208","6",1,"RetGoals_V1","2022.2.4",2,6,0,1,0.505042492999962,"Internal",1,NA,0,"40","InternTask.077.jpeg","addsub","",2,NA
"209","6",1,"RetGoals_V1","2022.2.4",3,6,1,3,0.441765124000028,"Retrieval",NA,NA,NA,"40","1_147.jpg","vehicle","Encod_Stim.147.jpeg",3,NA
"210","6",1,"RetGoals_V1","2022.2.4",3,6,1,4,0.469922540000368,"Encoding",NA,NA,NA,"40","Encod_Stim.170.jpeg","building","",4,1
"211","6",1,"RetGoals_V1","2022.2.4",3,6,1,3,0.339726682999924,"External",0,6,NA,"40","ExAttn_Stim.170.jpeg","squares","",3,NA
"212","6",1,"RetGoals_V1","2022.2.4",3,6,1,2,0.635671744999797,"Internal",1,NA,0,"40","InternTask.170.jpeg","subadd","",2,NA
"213","6",1,"RetGoals_V1","2022.2.4",4,6,1,2,0.428545665999934,"Retrieval",NA,NA,NA,"40","1_114.jpg","fruit","Encod_Stim.114.jpeg",2,NA
"214","6",1,"RetGoals_V1","2022.2.4",4,6,1,2,0.705945381000163,"Encoding",NA,NA,NA,"40","Encod_Stim.084.jpeg","building","",2,1
"215","6",1,"RetGoals_V1","2022.2.4",4,6,0,3,0.0888171989999478,"External",1,6,NA,"40","ExAttn_Stim.084.jpeg","triangles","",4,NA
"216","6",1,"RetGoals_V1","2022.2.4",4,6,1,2,0.835612717000402,"Internal",9,NA,1,"40","InternTask.084.jpeg","addsub","",2,NA
"217","6",1,"RetGoals_V1","2022.2.4",5,6,1,2,0.267903126000363,"Retrieval",NA,NA,NA,"40","1_7.jpg","fruit","Encod_Stim.007.jpeg",2,NA
"218","6",1,"RetGoals_V1","2022.2.4",5,6,0,NA,NA,"Encoding",NA,NA,NA,"40","Encod_Stim.053.jpeg","vehicle","",2,1
"219","6",1,"RetGoals_V1","2022.2.4",5,6,0,2,0.404433935000213,"External",0,7,NA,"40","ExAttn_Stim.053.jpeg","circles","",3,NA
"220","6",1,"RetGoals_V1","2022.2.4",5,6,1,3,0.29280306700042,"Internal",0,NA,0,"40","InternTask.053.jpeg","addadd","",3,NA
"221","6",1,"RetGoals_V1","2022.2.4",6,6,1,3,0.260367793000057,"Retrieval",NA,NA,NA,"10","1_141.jpg","vehicle","Encod_Stim.141.jpeg",3,NA
"222","6",1,"RetGoals_V1","2022.2.4",6,6,1,2,0.398223224999981,"Encoding",NA,NA,NA,"10","Encod_Stim.044.jpeg","vehicle","",2,1
"223","6",1,"RetGoals_V1","2022.2.4",6,6,1,3,0.565916740000318,"External",0,5,NA,"10","ExAttn_Stim.044.jpeg","circles","",3,NA
"224","6",1,"RetGoals_V1","2022.2.4",6,6,1,4,0.577298623000331,"Internal",4,NA,0,"10","InternTask.044.jpeg","addadd","",4,NA
"225","6",1,"RetGoals_V1","2022.2.4",7,6,1,2,1.13962269799998,"Retrieval",NA,NA,NA,"10","1_27.jpg","fruit","Encod_Stim.027.jpeg",2,NA
"226","6",1,"RetGoals_V1","2022.2.4",7,6,0,1,0.294241806000116,"Encoding",NA,NA,NA,"10","Encod_Stim.106.jpeg","fruit","",4,0
"227","6",1,"RetGoals_V1","2022.2.4",7,6,1,3,0.210311377999858,"External",0,6,NA,"10","ExAttn_Stim.106.jpeg","triangles","",3,NA
"228","6",1,"RetGoals_V1","2022.2.4",7,6,1,4,0.389731929999868,"Internal",3,NA,0,"10","InternTask.106.jpeg","addsub","",4,NA
"229","6",1,"RetGoals_V1","2022.2.4",8,6,1,4,0.235292879000497,"Retrieval",NA,NA,NA,"10","1_95.jpg","building","Encod_Stim.095.jpeg",4,NA
"230","6",1,"RetGoals_V1","2022.2.4",8,6,0,2,0.74298904300025,"Encoding",NA,NA,NA,"10","Encod_Stim.248.jpeg","building","",3,0
"231","6",1,"RetGoals_V1","2022.2.4",8,6,0,3,1.00465210400029,"External",1,8,NA,"10","ExAttn_Stim.248.jpeg","diamonds","",2,NA
"232","6",1,"RetGoals_V1","2022.2.4",8,6,1,2,0.700142001000074,"Internal",4,NA,0,"10","InternTask.248.jpeg","subsub","",2,NA
"233","6",1,"RetGoals_V1","2022.2.4",9,6,1,2,0.304269540000803,"Retrieval",NA,NA,NA,"10","1_30.jpg","fruit","Encod_Stim.030.jpeg",2,NA
"234","6",1,"RetGoals_V1","2022.2.4",9,6,1,2,1.16315094300074,"Encoding",NA,NA,NA,"10","Encod_Stim.022.jpeg","fruit","",2,1
"235","6",1,"RetGoals_V1","2022.2.4",9,6,0,NA,NA,"External",1,6,NA,"10","ExAttn_Stim.022.jpeg","circles","",4,NA
"236","6",1,"RetGoals_V1","2022.2.4",9,6,0,3,0.301156123999988,"Internal",1,NA,0,"10","InternTask.022.jpeg","addadd","",2,NA
"237","6",1,"RetGoals_V1","2022.2.4",10,6,1,2,0.290319972999839,"Retrieval",NA,NA,NA,"10","1_209.jpg","fruit","Encod_Stim.209.jpeg",2,NA
"238","6",1,"RetGoals_V1","2022.2.4",10,6,1,4,0.89942220899951,"Encoding",NA,NA,NA,"10","Encod_Stim.146.jpeg","vehicle","",4,1
"239","6",1,"RetGoals_V1","2022.2.4",10,6,0,3,0.234069707000288,"External",1,7,NA,"10","ExAttn_Stim.146.jpeg","squares","",4,NA
"240","6",1,"RetGoals_V1","2022.2.4",10,6,1,3,0.0768571769994537,"Internal",0,NA,0,"10","InternTask.146.jpeg","addsub","",3,NA
"241","6",1,"RetGoals_V1","2022.2.4",1,7,0,4,0.803092155999991,"Retrieval",NA,NA,NA,"40","1_132.jpg","fruit","Encod_Stim.132.jpeg",2,NA
"242","6",1,"RetGoals_V1","2022.2.4",1,7,0,NA,NA,"Encoding",NA,NA,NA,"40","Encod_Stim.272.jpeg","vehicle","",3,0
"243","6",1,"RetGoals_V1","2022.2.4",1,7,1,4,0.548670733999984,"External",2,7,NA,"40","ExAttn_Stim.272.jpeg","diamonds","",4,NA
"244","6",1,"RetGoals_V1","2022.2.4",1,7,0,2,1.17578446800002,"Internal",2,NA,0,"40","InternTask.272.jpeg","subsub","",4,NA
"245","6",1,"RetGoals_V1","2022.2.4",2,7,0,4,0.553019051000035,"Retrieval",NA,NA,NA,"40","1_250.jpg","building","Encod_Stim.250.jpeg",3,NA
"246","6",1,"RetGoals_V1","2022.2.4",2,7,1,4,0.967423797000208,"Encoding",NA,NA,NA,"40","Encod_Stim.139.jpeg","vehicle","",4,0
"247","6",1,"RetGoals_V1","2022.2.4",2,7,1,2,0.242305498000121,"External",2,8,NA,"40","ExAttn_Stim.139.jpeg","squares","",2,NA
"248","6",1,"RetGoals_V1","2022.2.4",2,7,0,4,1.08260590599997,"Internal",0,NA,0,"40","InternTask.139.jpeg","addsub","",3,NA
"249","6",1,"RetGoals_V1","2022.2.4",3,7,0,4,0.35698221000024,"Retrieval",NA,NA,NA,"40","1_260.jpg","building","Encod_Stim.260.jpeg",3,NA
"250","6",1,"RetGoals_V1","2022.2.4",3,7,1,2,1.00586466699991,"Encoding",NA,NA,NA,"40","Encod_Stim.091.jpeg","building","",2,1
"251","6",1,"RetGoals_V1","2022.2.4",3,7,0,3,0.387678345999973,"External",2,7,NA,"40","ExAttn_Stim.091.jpeg","triangles","",4,NA
"252","6",1,"RetGoals_V1","2022.2.4",3,7,1,2,0.689375996000251,"Internal",3,NA,1,"40","InternTask.091.jpeg","addsub","",2,NA
"253","6",1,"RetGoals_V1","2022.2.4",4,7,1,4,0.408295577000388,"Retrieval",NA,NA,NA,"40","1_85.jpg","building","Encod_Stim.085.jpeg",4,NA
"254","6",1,"RetGoals_V1","2022.2.4",4,7,1,4,0.401560054000072,"Encoding",NA,NA,NA,"40","Encod_Stim.169.jpeg","building","",4,1
"255","6",1,"RetGoals_V1","2022.2.4",4,7,0,4,0.827294534999908,"External",0,6,NA,"40","ExAttn_Stim.169.jpeg","squares","",3,NA
"256","6",1,"RetGoals_V1","2022.2.4",4,7,1,2,0.726090415000215,"Internal",2,NA,0,"40","InternTask.169.jpeg","subadd","",2,NA
"257","6",1,"RetGoals_V1","2022.2.4",5,7,1,2,0.270386032000204,"Retrieval",NA,NA,NA,"40","1_225.jpg","fruit","Encod_Stim.225.jpeg",2,NA
"258","6",1,"RetGoals_V1","2022.2.4",5,7,1,2,0.318329795999887,"Encoding",NA,NA,NA,"40","Encod_Stim.067.jpeg","building","",2,0
"259","6",1,"RetGoals_V1","2022.2.4",5,7,0,4,1.29101405600017,"External",1,7,NA,"40","ExAttn_Stim.067.jpeg","triangles","",2,NA
"260","6",1,"RetGoals_V1","2022.2.4",5,7,1,3,0.446897632999878,"Internal",0,NA,0,"40","InternTask.067.jpeg","addadd","",3,NA
"261","6",1,"RetGoals_V1","2022.2.4",6,7,0,4,1.29532616499995,"Retrieval",NA,NA,NA,"10","1_254.jpg","building","Encod_Stim.254.jpeg",3,NA
"262","6",1,"RetGoals_V1","2022.2.4",6,7,1,4,0.485042064999959,"Encoding",NA,NA,NA,"10","Encod_Stim.138.jpeg","vehicle","",4,1
"263","6",1,"RetGoals_V1","2022.2.4",6,7,1,2,0.274713245000328,"External",2,8,NA,"10","ExAttn_Stim.138.jpeg","squares","",2,NA
"264","6",1,"RetGoals_V1","2022.2.4",6,7,0,NA,NA,"Internal",0,NA,0,"10","InternTask.138.jpeg","addsub","",3,NA
"265","6",1,"RetGoals_V1","2022.2.4",7,7,1,2,0.283171918000278,"Retrieval",NA,NA,NA,"10","1_133.jpg","fruit","Encod_Stim.133.jpeg",2,NA
"266","6",1,"RetGoals_V1","2022.2.4",7,7,0,1,0.382926511999756,"Encoding",NA,NA,NA,"10","Encod_Stim.133.jpeg","fruit","",4,1
"267","6",1,"RetGoals_V1","2022.2.4",7,7,0,3,0.782228299999986,"External",2,7,NA,"10","ExAttn_Stim.133.jpeg","squares","",2,NA
"268","6",1,"RetGoals_V1","2022.2.4",7,7,1,3,0.0906384549998052,"Internal",0,NA,0,"10","InternTask.133.jpeg","addsub","",3,NA
"269","6",1,"RetGoals_V1","2022.2.4",8,7,0,4,0.9742305070003,"Retrieval",NA,NA,NA,"10","1_248.jpg","building","Encod_Stim.248.jpeg",3,NA
"270","6",1,"RetGoals_V1","2022.2.4",8,7,1,3,0.327422292999415,"Encoding",NA,NA,NA,"10","Encod_Stim.298.jpeg","vehicle","",3,0
"271","6",1,"RetGoals_V1","2022.2.4",8,7,1,3,1.30579485200036,"External",0,8,NA,"10","ExAttn_Stim.298.jpeg","diamonds","",3,NA
"272","6",1,"RetGoals_V1","2022.2.4",8,7,1,3,0.579076895000014,"Internal",0,NA,0,"10","InternTask.298.jpeg","subsub","",3,NA
"273","6",1,"RetGoals_V1","2022.2.4",9,7,0,3,0.295881812999994,"Retrieval",NA,NA,NA,"10","1_267.jpg","vehicle","Encod_Stim.267.jpeg",4,NA
"274","6",1,"RetGoals_V1","2022.2.4",9,7,1,2,0.371785887000385,"Encoding",NA,NA,NA,"10","Encod_Stim.030.jpeg","fruit","",2,1
"275","6",1,"RetGoals_V1","2022.2.4",9,7,1,4,1.09053684200074,"External",1,8,NA,"10","ExAttn_Stim.030.jpeg","circles","",4,NA
"276","6",1,"RetGoals_V1","2022.2.4",9,7,1,4,0.557028887000286,"Internal",1,NA,0,"10","InternTask.030.jpeg","addadd","",4,NA
"277","6",1,"RetGoals_V1","2022.2.4",10,7,1,3,0.491787570999747,"Retrieval",NA,NA,NA,"10","1_149.jpg","vehicle","Encod_Stim.149.jpeg",3,NA
"278","6",1,"RetGoals_V1","2022.2.4",10,7,1,3,0.930493263999722,"Encoding",NA,NA,NA,"10","Encod_Stim.209.jpeg","fruit","",3,1
"279","6",1,"RetGoals_V1","2022.2.4",10,7,0,3,0.38995548700035,"External",1,8,NA,"10","ExAttn_Stim.209.jpeg","stars","",4,NA
"280","6",1,"RetGoals_V1","2022.2.4",10,7,1,3,0.110637170000643,"Internal",0,NA,0,"10","InternTask.209.jpeg","subadd","",3,NA
"281","6",1,"RetGoals_V1","2022.2.4",1,8,0,1,1.01698017500001,"Retrieval",NA,NA,NA,"40","1_45.jpg","vehicle","Encod_Stim.045.jpeg",3,NA
"282","6",1,"RetGoals_V1","2022.2.4",1,8,1,4,0.14971853500009,"Encoding",NA,NA,NA,"40","Encod_Stim.196.jpeg","building","",4,1
"283","6",1,"RetGoals_V1","2022.2.4",1,8,1,2,0.859276480999938,"External",2,8,NA,"40","ExAttn_Stim.196.jpeg","stars","",2,NA
"284","6",1,"RetGoals_V1","2022.2.4",1,8,0,NA,NA,"Internal",2,NA,0,"40","InternTask.196.jpeg","subadd","",4,NA
"285","6",1,"RetGoals_V1","2022.2.4",2,8,1,2,0.616732527000011,"Retrieval",NA,NA,NA,"40","1_231.jpg","fruit","Encod_Stim.231.jpeg",2,NA
"286","6",1,"RetGoals_V1","2022.2.4",2,8,1,4,1.22245265500004,"Encoding",NA,NA,NA,"40","Encod_Stim.143.jpeg","vehicle","",4,1
"287","6",1,"RetGoals_V1","2022.2.4",2,8,0,3,0.597765509999988,"External",1,6,NA,"40","ExAttn_Stim.143.jpeg","squares","",4,NA
"288","6",1,"RetGoals_V1","2022.2.4",2,8,1,3,0.23628500600006,"Internal",0,NA,0,"40","InternTask.143.jpeg","addsub","",3,NA
"289","6",1,"RetGoals_V1","2022.2.4",3,8,1,2,0.381187699999771,"Retrieval",NA,NA,NA,"40","1_219.jpg","fruit","Encod_Stim.219.jpeg",2,NA
"290","6",1,"RetGoals_V1","2022.2.4",3,8,1,2,0.654369899999836,"Encoding",NA,NA,NA,"40","Encod_Stim.046.jpeg","vehicle","",2,1
"291","6",1,"RetGoals_V1","2022.2.4",3,8,0,NA,NA,"External",0,6,NA,"40","ExAttn_Stim.046.jpeg","circles","",3,NA
"292","6",1,"RetGoals_V1","2022.2.4",3,8,1,4,0.463806410000359,"Internal",4,NA,0,"40","InternTask.046.jpeg","addadd","",4,NA
"293","6",1,"RetGoals_V1","2022.2.4",4,8,1,4,0.317117776999964,"Retrieval",NA,NA,NA,"40","1_169.jpg","building","Encod_Stim.169.jpeg",4,NA
"294","6",1,"RetGoals_V1","2022.2.4",4,8,0,1,0.771289156999899,"Encoding",NA,NA,NA,"40","Encod_Stim.233.jpeg","fruit","",3,1
"295","6",1,"RetGoals_V1","2022.2.4",4,8,0,4,0.29449259200004,"External",0,7,NA,"40","ExAttn_Stim.233.jpeg","stars","",3,NA
"296","6",1,"RetGoals_V1","2022.2.4",4,8,1,2,0.957538545000204,"Internal",2,NA,2,"40","InternTask.233.jpeg","subsub","",2,NA
"297","6",1,"RetGoals_V1","2022.2.4",5,8,1,3,0.296326446999899,"Retrieval",NA,NA,NA,"40","1_167.jpg","vehicle","Encod_Stim.167.jpeg",3,NA
"298","6",1,"RetGoals_V1","2022.2.4",5,8,1,4,0.471151192999912,"Encoding",NA,NA,NA,"40","Encod_Stim.110.jpeg","fruit","",4,1
"299","6",1,"RetGoals_V1","2022.2.4",5,8,1,3,0.969971793999719,"External",0,6,NA,"40","ExAttn_Stim.110.jpeg","triangles","",3,NA
"300","6",1,"RetGoals_V1","2022.2.4",5,8,1,4,0.585278616000267,"Internal",2,NA,0,"40","InternTask.110.jpeg","addsub","",4,NA
"301","6",1,"RetGoals_V1","2022.2.4",6,8,1,3,0.359649953000314,"Retrieval",NA,NA,NA,"10","1_44.jpg","vehicle","Encod_Stim.044.jpeg",3,NA
"302","6",1,"RetGoals_V1","2022.2.4",6,8,1,3,0.350005737000117,"Encoding",NA,NA,NA,"10","Encod_Stim.254.jpeg","building","",3,0
"303","6",1,"RetGoals_V1","2022.2.4",6,8,0,3,0.556736838000177,"External",2,7,NA,"10","ExAttn_Stim.254.jpeg","diamonds","",2,NA
"304","6",1,"RetGoals_V1","2022.2.4",6,8,0,NA,NA,"Internal",6,NA,1,"10","InternTask.254.jpeg","subsub","",4,NA
"305","6",1,"RetGoals_V1","2022.2.4",7,8,1,2,0.285400258000152,"Retrieval",NA,NA,NA,"10","1_29.jpg","fruit","Encod_Stim.029.jpeg",2,NA
"306","6",1,"RetGoals_V1","2022.2.4",7,8,0,1,0.292838789000086,"Encoding",NA,NA,NA,"10","Encod_Stim.285.jpeg","vehicle","",3,0
"307","6",1,"RetGoals_V1","2022.2.4",7,8,1,3,0.274979614000074,"External",0,5,NA,"10","ExAttn_Stim.285.jpeg","diamonds","",3,NA
"308","6",1,"RetGoals_V1","2022.2.4",7,8,1,3,0.38916777299977,"Internal",0,NA,2,"10","InternTask.285.jpeg","subsub","",3,NA
"309","6",1,"RetGoals_V1","2022.2.4",8,8,1,4,0.285329974999456,"Retrieval",NA,NA,NA,"10","1_72.jpg","building","Encod_Stim.072.jpeg",4,NA
"310","6",1,"RetGoals_V1","2022.2.4",8,8,1,4,0.479929190000746,"Encoding",NA,NA,NA,"10","Encod_Stim.200.jpeg","building","",4,1
"311","6",1,"RetGoals_V1","2022.2.4",8,8,0,3,0.313815537000607,"External",2,8,NA,"10","ExAttn_Stim.200.jpeg","stars","",2,NA
"312","6",1,"RetGoals_V1","2022.2.4",8,8,1,4,0.240905764000615,"Internal",9,NA,0,"10","InternTask.200.jpeg","subadd","",4,NA
"313","6",1,"RetGoals_V1","2022.2.4",9,8,1,2,0.378634919999911,"Retrieval",NA,NA,NA,"10","1_206.jpg","fruit","Encod_Stim.206.jpeg",2,NA
"314","6",1,"RetGoals_V1","2022.2.4",9,8,1,3,1.22700063899987,"Encoding",NA,NA,NA,"10","Encod_Stim.206.jpeg","fruit","",3,1
"315","6",1,"RetGoals_V1","2022.2.4",9,8,1,4,1.44304809300041,"External",1,7,NA,"10","ExAttn_Stim.206.jpeg","stars","",4,NA
"316","6",1,"RetGoals_V1","2022.2.4",9,8,0,4,1.01185005499968,"Internal",0,NA,0,"10","InternTask.206.jpeg","subadd","",3,NA
"317","6",1,"RetGoals_V1","2022.2.4",10,8,1,2,0.260639015000322,"Retrieval",NA,NA,NA,"10","1_104.jpg","fruit","Encod_Stim.104.jpeg",2,NA
"318","6",1,"RetGoals_V1","2022.2.4",10,8,1,2,0.93176293800019,"Encoding",NA,NA,NA,"10","Encod_Stim.075.jpeg","building","",2,1
"319","6",1,"RetGoals_V1","2022.2.4",10,8,1,2,0.27465032000049,"External",2,7,NA,"10","ExAttn_Stim.075.jpeg","triangles","",2,NA
"320","6",1,"RetGoals_V1","2022.2.4",10,8,1,3,0.271284043000321,"Internal",0,NA,0,"10","InternTask.075.jpeg","addadd","",3,NA
"321","6",1,"RetGoals_V1","2022.2.4",1,9,0,3,1.10059930000006,"Retrieval",NA,NA,NA,"40","1_87.jpg","building","Encod_Stim.087.jpeg",4,NA
"322","6",1,"RetGoals_V1","2022.2.4",1,9,1,4,0.0140594840001427,"Encoding",NA,NA,NA,"40","Encod_Stim.117.jpeg","fruit","",4,0
"323","6",1,"RetGoals_V1","2022.2.4",1,9,1,3,0.813304528000003,"External",0,8,NA,"40","ExAttn_Stim.117.jpeg","triangles","",3,NA
"324","6",1,"RetGoals_V1","2022.2.4",1,9,0,3,1.00485947100009,"Internal",1,NA,0,"40","InternTask.117.jpeg","addsub","",4,NA
"325","6",1,"RetGoals_V1","2022.2.4",2,9,0,4,0.892112398000052,"Retrieval",NA,NA,NA,"40","1_259.jpg","building","Encod_Stim.259.jpeg",3,NA
"326","6",1,"RetGoals_V1","2022.2.4",2,9,1,3,0.302219352000009,"Encoding",NA,NA,NA,"40","Encod_Stim.210.jpeg","fruit","",3,1
"327","6",1,"RetGoals_V1","2022.2.4",2,9,1,4,0.19570291000008,"External",1,8,NA,"40","ExAttn_Stim.210.jpeg","stars","",4,NA
"328","6",1,"RetGoals_V1","2022.2.4",2,9,1,3,0.31990523799999,"Internal",0,NA,0,"40","InternTask.210.jpeg","subadd","",3,NA
"329","6",1,"RetGoals_V1","2022.2.4",3,9,1,4,0.331332377999786,"Retrieval",NA,NA,NA,"40","1_179.jpg","building","Encod_Stim.179.jpeg",4,NA
"330","6",1,"RetGoals_V1","2022.2.4",3,9,0,NA,NA,"Encoding",NA,NA,NA,"40","Encod_Stim.012.jpeg","fruit","",2,1
"331","6",1,"RetGoals_V1","2022.2.4",3,9,1,2,0.794579857000315,"External",2,7,NA,"40","ExAttn_Stim.012.jpeg","circles","",2,NA
"332","6",1,"RetGoals_V1","2022.2.4",3,9,1,2,0.78681813399993,"Internal",4,NA,0,"40","InternTask.012.jpeg","addadd","",2,NA
"333","6",1,"RetGoals_V1","2022.2.4",4,9,1,3,0.284901656999807,"Retrieval",NA,NA,NA,"40","1_51.jpg","vehicle","Encod_Stim.051.jpeg",3,NA
"334","6",1,"RetGoals_V1","2022.2.4",4,9,1,4,0.826965924000376,"Encoding",NA,NA,NA,"40","Encod_Stim.180.jpeg","building","",4,1
"335","6",1,"RetGoals_V1","2022.2.4",4,9,0,NA,NA,"External",0,8,NA,"40","ExAttn_Stim.180.jpeg","squares","",3,NA
"336","6",1,"RetGoals_V1","2022.2.4",4,9,1,4,0.475278320000086,"Internal",5,NA,0,"40","InternTask.180.jpeg","subadd","",4,NA
"337","6",1,"RetGoals_V1","2022.2.4",5,9,1,4,0.0898658230002525,"Retrieval",NA,NA,NA,"40","1_195.jpg","building","Encod_Stim.195.jpeg",4,NA
"338","6",1,"RetGoals_V1","2022.2.4",5,9,1,3,1.35883343200015,"Encoding",NA,NA,NA,"40","Encod_Stim.275.jpeg","vehicle","",3,0
"339","6",1,"RetGoals_V1","2022.2.4",5,9,1,4,0.375224967000065,"External",2,7,NA,"40","ExAttn_Stim.275.jpeg","diamonds","",4,NA
"340","6",1,"RetGoals_V1","2022.2.4",5,9,1,4,0.743350594000219,"Internal",5,NA,2,"40","InternTask.275.jpeg","subsub","",4,NA
"341","6",1,"RetGoals_V1","2022.2.4",6,9,1,2,0.389114625000218,"Retrieval",NA,NA,NA,"10","1_215.jpg","fruit","Encod_Stim.215.jpeg",2,NA
"342","6",1,"RetGoals_V1","2022.2.4",6,9,1,2,0.342707988999734,"Encoding",NA,NA,NA,"10","Encod_Stim.064.jpeg","vehicle","",2,1
"343","6",1,"RetGoals_V1","2022.2.4",6,9,0,3,0.0848228009999161,"External",1,6,NA,"10","ExAttn_Stim.064.jpeg","triangles","",2,NA
"344","6",1,"RetGoals_V1","2022.2.4",6,9,1,3,0.663617517999626,"Internal",0,NA,0,"10","InternTask.064.jpeg","addadd","",3,NA
"345","6",1,"RetGoals_V1","2022.2.4",7,9,0,3,0.277082877999817,"Retrieval",NA,NA,NA,"10","1_285.jpg","vehicle","Encod_Stim.285.jpeg",4,NA
"346","6",1,"RetGoals_V1","2022.2.4",7,9,0,1,0.284860183000035,"Encoding",NA,NA,NA,"10","Encod_Stim.027.jpeg","fruit","",2,1
"347","6",1,"RetGoals_V1","2022.2.4",7,9,0,3,0.308874756999955,"External",1,7,NA,"10","ExAttn_Stim.027.jpeg","circles","",4,NA
"348","6",1,"RetGoals_V1","2022.2.4",7,9,0,3,0.257021368000039,"Internal",1,NA,0,"10","InternTask.027.jpeg","addadd","",4,NA
"349","6",1,"RetGoals_V1","2022.2.4",8,9,1,4,0.30957017599934,"Retrieval",NA,NA,NA,"10","1_98.jpg","building","Encod_Stim.098.jpeg",4,NA
"350","6",1,"RetGoals_V1","2022.2.4",8,9,1,2,0.296691683000006,"Encoding",NA,NA,NA,"10","Encod_Stim.098.jpeg","building","",2,1
"351","6",1,"RetGoals_V1","2022.2.4",8,9,0,2,0.242062773000669,"External",2,8,NA,"10","ExAttn_Stim.098.jpeg","triangles","",4,NA
"352","6",1,"RetGoals_V1","2022.2.4",8,9,1,2,0.076717478000262,"Internal",4,NA,0,"10","InternTask.098.jpeg","addsub","",2,NA
"353","6",1,"RetGoals_V1","2022.2.4",9,9,0,3,0.327758594999921,"Retrieval",NA,NA,NA,"10","1_294.jpg","vehicle","Encod_Stim.294.jpeg",4,NA
"354","6",1,"RetGoals_V1","2022.2.4",9,9,1,3,1.17064982299956,"Encoding",NA,NA,NA,"10","Encod_Stim.294.jpeg","vehicle","",3,0
"355","6",1,"RetGoals_V1","2022.2.4",9,9,0,2,0.269501276999961,"External",0,7,NA,"10","ExAttn_Stim.294.jpeg","diamonds","",3,NA
"356","6",1,"RetGoals_V1","2022.2.4",9,9,1,3,0.0721214500007932,"Internal",0,NA,0,"10","InternTask.294.jpeg","subsub","",3,NA
"357","6",1,"RetGoals_V1","2022.2.4",10,9,0,4,0.287543301000312,"Retrieval",NA,NA,NA,"10","1_264.jpg","building","Encod_Stim.264.jpeg",3,NA
"358","6",1,"RetGoals_V1","2022.2.4",10,9,1,4,0.394202741999777,"Encoding",NA,NA,NA,"10","Encod_Stim.189.jpeg","building","",4,1
"359","6",1,"RetGoals_V1","2022.2.4",10,9,0,3,0.00485986899997215,"External",1,8,NA,"10","ExAttn_Stim.189.jpeg","stars","",2,NA
"360","6",1,"RetGoals_V1","2022.2.4",10,9,1,4,0.266159093999647,"Internal",1,NA,0,"10","InternTask.189.jpeg","subadd","",4,NA
"361","6",1,"RetGoals_V1","2022.2.4",1,10,0,2,0.668079471999988,"Retrieval",NA,NA,NA,"40","1_154.jpg","vehicle","Encod_Stim.154.jpeg",3,NA
"362","6",1,"RetGoals_V1","2022.2.4",1,10,0,NA,NA,"Encoding",NA,NA,NA,"40","Encod_Stim.217.jpeg","fruit","",3,0
"363","6",1,"RetGoals_V1","2022.2.4",1,10,1,4,0.466433235999943,"External",2,8,NA,"40","ExAttn_Stim.217.jpeg","stars","",4,NA
"364","6",1,"RetGoals_V1","2022.2.4",1,10,0,4,0.361733542000081,"Internal",0,NA,0,"40","InternTask.217.jpeg","subadd","",3,NA
"365","6",1,"RetGoals_V1","2022.2.4",2,10,1,3,0.524955889999944,"Retrieval",NA,NA,NA,"40","1_142.jpg","vehicle","Encod_Stim.142.jpeg",3,NA
"366","6",1,"RetGoals_V1","2022.2.4",2,10,1,4,0.617209268000067,"Encoding",NA,NA,NA,"40","Encod_Stim.119.jpeg","fruit","",4,1
"367","6",1,"RetGoals_V1","2022.2.4",2,10,1,3,1.25556881799997,"External",0,8,NA,"40","ExAttn_Stim.119.jpeg","triangles","",3,NA
"368","6",1,"RetGoals_V1","2022.2.4",2,10,1,4,0.335829808000142,"Internal",1,NA,0,"40","InternTask.119.jpeg","addsub","",4,NA
"369","6",1,"RetGoals_V1","2022.2.4",3,10,1,2,0.316500917000155,"Retrieval",NA,NA,NA,"40","1_228.jpg","fruit","Encod_Stim.228.jpeg",2,NA
"370","6",1,"RetGoals_V1","2022.2.4",3,10,1,2,1.11116549699994,"Encoding",NA,NA,NA,"40","Encod_Stim.020.jpeg","fruit","",2,1
"371","6",1,"RetGoals_V1","2022.2.4",3,10,1,2,0.566515516000379,"External",2,8,NA,"40","ExAttn_Stim.020.jpeg","circles","",2,NA
"372","6",1,"RetGoals_V1","2022.2.4",3,10,1,2,0.400013645000342,"Internal",9,NA,0,"40","InternTask.020.jpeg","addadd","",2,NA
"373","6",1,"RetGoals_V1","2022.2.4",4,10,1,4,0.958814700000346,"Retrieval",NA,NA,NA,"40","1_86.jpg","building","Encod_Stim.086.jpeg",4,NA
"374","6",1,"RetGoals_V1","2022.2.4",4,10,1,3,1.18750626500008,"Encoding",NA,NA,NA,"40","Encod_Stim.211.jpeg","fruit","",3,0
"375","6",1,"RetGoals_V1","2022.2.4",4,10,0,3,0.624117531000081,"External",2,7,NA,"40","ExAttn_Stim.211.jpeg","stars","",4,NA
"376","6",1,"RetGoals_V1","2022.2.4",4,10,1,3,0.781578577000289,"Internal",0,NA,0,"40","InternTask.211.jpeg","subadd","",3,NA
"377","6",1,"RetGoals_V1","2022.2.4",5,10,0,NA,NA,"Retrieval",NA,NA,NA,"40","1_168.jpg","building","Encod_Stim.168.jpeg",4,NA
"378","6",1,"RetGoals_V1","2022.2.4",5,10,1,4,0.440653942000097,"Encoding",NA,NA,NA,"40","Encod_Stim.107.jpeg","fruit","",4,1
"379","6",1,"RetGoals_V1","2022.2.4",5,10,1,3,0.334150759000238,"External",0,6,NA,"40","ExAttn_Stim.107.jpeg","triangles","",3,NA
"380","6",1,"RetGoals_V1","2022.2.4",5,10,0,2,1.15090390300014,"Internal",1,NA,0,"40","InternTask.107.jpeg","addsub","",4,NA
"381","6",1,"RetGoals_V1","2022.2.4",6,10,1,2,0.290672801000198,"Retrieval",NA,NA,NA,"10","1_17.jpg","fruit","Encod_Stim.017.jpeg",2,NA
"382","6",1,"RetGoals_V1","2022.2.4",6,10,1,3,1.07887945399983,"Encoding",NA,NA,NA,"10","Encod_Stim.221.jpeg","fruit","",3,1
"383","6",1,"RetGoals_V1","2022.2.4",6,10,1,3,0.542143099999919,"External",0,5,NA,"10","ExAttn_Stim.221.jpeg","stars","",3,NA
"384","6",1,"RetGoals_V1","2022.2.4",6,10,0,2,0.369592832999786,"Internal",0,NA,0,"10","InternTask.221.jpeg","subadd","",3,NA
"385","6",1,"RetGoals_V1","2022.2.4",7,10,1,4,0.44711605499964,"Retrieval",NA,NA,NA,"10","1_97.jpg","building","Encod_Stim.097.jpeg",4,NA
"386","6",1,"RetGoals_V1","2022.2.4",7,10,0,1,0.326017400000126,"Encoding",NA,NA,NA,"10","Encod_Stim.094.jpeg","building","",2,0
"387","6",1,"RetGoals_V1","2022.2.4",7,10,1,4,0.399218832999793,"External",2,7,NA,"10","ExAttn_Stim.094.jpeg","triangles","",4,NA
"388","6",1,"RetGoals_V1","2022.2.4",7,10,1,2,0.228265436000072,"Internal",7,NA,0,"10","InternTask.094.jpeg","addsub","",2,NA
"389","6",1,"RetGoals_V1","2022.2.4",8,10,0,3,0.965761352000243,"Retrieval",NA,NA,NA,"10","1_226.jpg","fruit","Encod_Stim.226.jpeg",2,NA
"390","6",1,"RetGoals_V1","2022.2.4",8,10,1,2,1.05676375599973,"Encoding",NA,NA,NA,"10","Encod_Stim.095.jpeg","building","",2,1
"391","6",1,"RetGoals_V1","2022.2.4",8,10,0,2,0.10922320900039,"External",2,7,NA,"10","ExAttn_Stim.095.jpeg","triangles","",4,NA
"392","6",1,"RetGoals_V1","2022.2.4",8,10,1,2,0.552208582999754,"Internal",13,NA,0,"10","InternTask.095.jpeg","addsub","",2,NA
"393","6",1,"RetGoals_V1","2022.2.4",9,10,1,2,0.287711590000015,"Retrieval",NA,NA,NA,"10","1_232.jpg","fruit","Encod_Stim.232.jpeg",2,NA
"394","6",1,"RetGoals_V1","2022.2.4",9,10,1,3,0.333118534999755,"Encoding",NA,NA,NA,"10","Encod_Stim.267.jpeg","vehicle","",3,0
"395","6",1,"RetGoals_V1","2022.2.4",9,10,1,4,0.112952794000137,"External",1,8,NA,"10","ExAttn_Stim.267.jpeg","diamonds","",4,NA
"396","6",1,"RetGoals_V1","2022.2.4",9,10,1,4,1.12198656100003,"Internal",8,NA,1,"10","InternTask.267.jpeg","subsub","",4,NA
"397","6",1,"RetGoals_V1","2022.2.4",10,10,1,4,0.241353874999675,"Retrieval",NA,NA,NA,"10","1_189.jpg","building","Encod_Stim.189.jpeg",4,NA
"398","6",1,"RetGoals_V1","2022.2.4",10,10,0,3,0.299652352999999,"Encoding",NA,NA,NA,"10","Encod_Stim.104.jpeg","fruit","",4,1
"399","6",1,"RetGoals_V1","2022.2.4",10,10,1,3,0.36140779200008,"External",0,5,NA,"10","ExAttn_Stim.104.jpeg","triangles","",3,NA
"400","6",1,"RetGoals_V1","2022.2.4",10,10,1,4,0.429015939999715,"Internal",1,NA,0,"10","InternTask.104.jpeg","addsub","",4,NA
"401","6",1,"RetGoals_V1","2022.2.4",1,11,1,2,1.30921476500015,"Retrieval",NA,NA,NA,"40","1_116.jpg","fruit","Encod_Stim.116.jpeg",2,NA
"402","6",1,"RetGoals_V1","2022.2.4",1,11,1,4,0.80493506900001,"Encoding",NA,NA,NA,"40","Encod_Stim.153.jpeg","vehicle","",4,0
"403","6",1,"RetGoals_V1","2022.2.4",1,11,1,4,0.908533160999923,"External",2,7,NA,"40","ExAttn_Stim.153.jpeg","squares","",4,NA
"404","6",1,"RetGoals_V1","2022.2.4",1,11,1,2,0.559424515999979,"Internal",2,NA,0,"40","InternTask.153.jpeg","subadd","",2,NA
"405","6",1,"RetGoals_V1","2022.2.4",2,11,1,4,0.445089967000001,"Retrieval",NA,NA,NA,"40","1_190.jpg","building","Encod_Stim.190.jpeg",4,NA
"406","6",1,"RetGoals_V1","2022.2.4",2,11,1,4,1.18400425099998,"Encoding",NA,NA,NA,"40","Encod_Stim.190.jpeg","building","",4,1
"407","6",1,"RetGoals_V1","2022.2.4",2,11,0,3,0.673824545000059,"External",1,8,NA,"40","ExAttn_Stim.190.jpeg","stars","",2,NA
"408","6",1,"RetGoals_V1","2022.2.4",2,11,1,4,0.573522842000045,"Internal",12,NA,0,"40","InternTask.190.jpeg","subadd","",4,NA
"409","6",1,"RetGoals_V1","2022.2.4",3,11,1,2,0.476857562000021,"Retrieval",NA,NA,NA,"40","1_120.jpg","fruit","Encod_Stim.120.jpeg",2,NA
"410","6",1,"RetGoals_V1","2022.2.4",3,11,1,4,0.942706315000066,"Encoding",NA,NA,NA,"40","Encod_Stim.103.jpeg","fruit","",4,0
"411","6",1,"RetGoals_V1","2022.2.4",3,11,1,3,1.02043806600017,"External",0,5,NA,"40","ExAttn_Stim.103.jpeg","triangles","",3,NA
"412","6",1,"RetGoals_V1","2022.2.4",3,11,1,4,1.17298778600019,"Internal",1,NA,0,"40","InternTask.103.jpeg","addsub","",4,NA
"413","6",1,"RetGoals_V1","2022.2.4",4,11,1,2,0.388791926000465,"Retrieval",NA,NA,NA,"40","1_13.jpg","fruit","Encod_Stim.013.jpeg",2,NA
"414","6",1,"RetGoals_V1","2022.2.4",4,11,1,2,1.21199922299996,"Encoding",NA,NA,NA,"40","Encod_Stim.069.jpeg","building","",2,1
"415","6",1,"RetGoals_V1","2022.2.4",4,11,0,4,0.355352824999898,"External",1,8,NA,"40","ExAttn_Stim.069.jpeg","triangles","",2,NA
"416","6",1,"RetGoals_V1","2022.2.4",4,11,1,3,0.340048833999788,"Internal",0,NA,0,"40","InternTask.069.jpeg","addadd","",3,NA
"417","6",1,"RetGoals_V1","2022.2.4",5,11,1,3,0.275595160000137,"Retrieval",NA,NA,NA,"40","1_136.jpg","vehicle","Encod_Stim.136.jpeg",3,NA
"418","6",1,"RetGoals_V1","2022.2.4",5,11,1,4,1.08718672500021,"Encoding",NA,NA,NA,"40","Encod_Stim.136.jpeg","vehicle","",4,1
"419","6",1,"RetGoals_V1","2022.2.4",5,11,1,2,0.324184214000468,"External",2,8,NA,"40","ExAttn_Stim.136.jpeg","squares","",2,NA
"420","6",1,"RetGoals_V1","2022.2.4",5,11,1,3,0.49239488500001,"Internal",0,NA,0,"40","InternTask.136.jpeg","addsub","",3,NA
"421","6",1,"RetGoals_V1","2022.2.4",1,12,1,4,1.20527149200001,"Retrieval",NA,NA,NA,"40","1_178.jpg","building","Encod_Stim.178.jpeg",4,NA
"422","6",1,"RetGoals_V1","2022.2.4",1,12,1,3,1.16557433800011,"Encoding",NA,NA,NA,"40","Encod_Stim.208.jpeg","fruit","",3,0
"423","6",1,"RetGoals_V1","2022.2.4",1,12,1,4,0.475762968000026,"External",1,8,NA,"40","ExAttn_Stim.208.jpeg","stars","",4,NA
"424","6",1,"RetGoals_V1","2022.2.4",1,12,1,3,0.262384174000033,"Internal",0,NA,0,"40","InternTask.208.jpeg","subadd","",3,NA
"425","6",1,"RetGoals_V1","2022.2.4",2,12,1,4,0.712524572000063,"Retrieval",NA,NA,NA,"40","1_197.jpg","building","Encod_Stim.197.jpeg",4,NA
"426","6",1,"RetGoals_V1","2022.2.4",2,12,1,3,0.48700019000006,"Encoding",NA,NA,NA,"40","Encod_Stim.247.jpeg","building","",3,0
"427","6",1,"RetGoals_V1","2022.2.4",2,12,0,4,1.07612565000017,"External",1,8,NA,"40","ExAttn_Stim.247.jpeg","diamonds","",2,NA
"428","6",1,"RetGoals_V1","2022.2.4",2,12,0,1,0.996165079000036,"Internal",1,NA,0,"40","InternTask.247.jpeg","subsub","",2,NA
"429","6",1,"RetGoals_V1","2022.2.4",3,12,1,3,0.325356279999994,"Retrieval",NA,NA,NA,"40","1_166.jpg","vehicle","Encod_Stim.166.jpeg",3,NA
"430","6",1,"RetGoals_V1","2022.2.4",3,12,1,3,1.15181325199995,"Encoding",NA,NA,NA,"40","Encod_Stim.286.jpeg","vehicle","",3,0
"431","6",1,"RetGoals_V1","2022.2.4",3,12,0,4,1.44833798700023,"External",0,6,NA,"40","ExAttn_Stim.286.jpeg","diamonds","",3,NA
"432","6",1,"RetGoals_V1","2022.2.4",3,12,0,4,1.20278769800001,"Internal",0,NA,0,"40","InternTask.286.jpeg","subsub","",3,NA
"433","6",1,"RetGoals_V1","2022.2.4",4,12,0,4,0.354065956999818,"Retrieval",NA,NA,NA,"40","1_255.jpg","building","Encod_Stim.255.jpeg",3,NA
"434","6",1,"RetGoals_V1","2022.2.4",4,12,1,3,1.12303629899992,"Encoding",NA,NA,NA,"40","Encod_Stim.220.jpeg","fruit","",3,1
"435","6",1,"RetGoals_V1","2022.2.4",4,12,1,4,0.530984335000028,"External",2,8,NA,"40","ExAttn_Stim.220.jpeg","stars","",4,NA
"436","6",1,"RetGoals_V1","2022.2.4",4,12,1,3,0.291227450999884,"Internal",0,NA,0,"40","InternTask.220.jpeg","subadd","",3,NA
"437","6",1,"RetGoals_V1","2022.2.4",5,12,1,2,0.310717452000006,"Retrieval",NA,NA,NA,"40","1_201.jpg","fruit","Encod_Stim.201.jpeg",2,NA
"438","6",1,"RetGoals_V1","2022.2.4",5,12,1,4,1.15263695700008,"Encoding",NA,NA,NA,"40","Encod_Stim.144.jpeg","vehicle","",4,1
"439","6",1,"RetGoals_V1","2022.2.4",5,12,0,3,0.470061280000152,"External",1,7,NA,"40","ExAttn_Stim.144.jpeg","squares","",4,NA
"440","6",1,"RetGoals_V1","2022.2.4",5,12,1,3,0.430406291999986,"Internal",0,NA,0,"40","InternTask.144.jpeg","addsub","",3,NA
"441","6",1,"RetGoals_V1","2022.2.4",1,13,0,NA,NA,"Retrieval",NA,NA,NA,"40","1_130.jpg","fruit","Encod_Stim.130.jpeg",2,NA
"442","6",1,"RetGoals_V1","2022.2.4",1,13,1,4,0.0466516809999007,"Encoding",NA,NA,NA,"40","Encod_Stim.192.jpeg","building","",4,0
"443","6",1,"RetGoals_V1","2022.2.4",1,13,0,3,0.558468589999961,"External",2,7,NA,"40","ExAttn_Stim.192.jpeg","stars","",2,NA
"444","6",1,"RetGoals_V1","2022.2.4",1,13,1,4,0.217698379999945,"Internal",7,NA,1,"40","InternTask.192.jpeg","subadd","",4,NA
"445","6",1,"RetGoals_V1","2022.2.4",2,13,1,2,1.42480822200008,"Retrieval",NA,NA,NA,"40","1_210.jpg","fruit","Encod_Stim.210.jpeg",2,NA
"446","6",1,"RetGoals_V1","2022.2.4",2,13,1,4,0.720119538999995,"Encoding",NA,NA,NA,"40","Encod_Stim.187.jpeg","building","",4,1
"447","6",1,"RetGoals_V1","2022.2.4",2,13,0,3,1.18836760400012,"External",1,7,NA,"40","ExAttn_Stim.187.jpeg","stars","",2,NA
"448","6",1,"RetGoals_V1","2022.2.4",2,13,1,4,0.472530561999918,"Internal",9,NA,1,"40","InternTask.187.jpeg","subadd","",4,NA
"449","6",1,"RetGoals_V1","2022.2.4",3,13,1,3,0.437790585000073,"Retrieval",NA,NA,NA,"40","1_42.jpg","vehicle","Encod_Stim.042.jpeg",3,NA
"450","6",1,"RetGoals_V1","2022.2.4",3,13,1,2,1.07929601900008,"Encoding",NA,NA,NA,"40","Encod_Stim.083.jpeg","building","",2,1
"451","6",1,"RetGoals_V1","2022.2.4",3,13,1,4,0.321484973000167,"External",1,6,NA,"40","ExAttn_Stim.083.jpeg","triangles","",4,NA
"452","6",1,"RetGoals_V1","2022.2.4",3,13,0,NA,NA,"Internal",9,NA,0,"40","InternTask.083.jpeg","addsub","",2,NA
"453","6",1,"RetGoals_V1","2022.2.4",4,13,1,4,0.673532557000215,"Retrieval",NA,NA,NA,"40","1_171.jpg","building","Encod_Stim.171.jpeg",4,NA
"454","6",1,"RetGoals_V1","2022.2.4",4,13,1,4,0.291766645000223,"Encoding",NA,NA,NA,"40","Encod_Stim.171.jpeg","building","",4,1
"455","6",1,"RetGoals_V1","2022.2.4",4,13,0,2,0.483451194999759,"External",0,7,NA,"40","ExAttn_Stim.171.jpeg","squares","",3,NA
"456","6",1,"RetGoals_V1","2022.2.4",4,13,0,NA,NA,"Internal",1,NA,0,"40","InternTask.171.jpeg","subadd","",2,NA
"457","6",1,"RetGoals_V1","2022.2.4",5,13,1,3,0.438694567999789,"Retrieval",NA,NA,NA,"40","1_43.jpg","vehicle","Encod_Stim.043.jpeg",3,NA
"458","6",1,"RetGoals_V1","2022.2.4",5,13,0,NA,NA,"Encoding",NA,NA,NA,"40","Encod_Stim.108.jpeg","fruit","",4,1
"459","6",1,"RetGoals_V1","2022.2.4",5,13,1,3,0.287016203000292,"External",0,6,NA,"40","ExAttn_Stim.108.jpeg","triangles","",3,NA
"460","6",1,"RetGoals_V1","2022.2.4",5,13,0,2,0.169058251999957,"Internal",1,NA,0,"40","InternTask.108.jpeg","addsub","",4,NA
"461","6",1,"RetGoals_V1","2022.2.4",1,14,0,3,1.08108603099998,"Retrieval",NA,NA,NA,"40","1_271.jpg","vehicle","Encod_Stim.271.jpeg",4,NA
"462","6",1,"RetGoals_V1","2022.2.4",1,14,1,4,0.28583392000013,"Encoding",NA,NA,NA,"40","Encod_Stim.199.jpeg","building","",4,0
"463","6",1,"RetGoals_V1","2022.2.4",1,14,0,3,0.580484008999974,"External",2,8,NA,"40","ExAttn_Stim.199.jpeg","stars","",2,NA
"464","6",1,"RetGoals_V1","2022.2.4",1,14,0,3,1.1730467050001,"Internal",1,NA,0,"40","InternTask.199.jpeg","subadd","",4,NA
"465","6",1,"RetGoals_V1","2022.2.4",2,14,1,2,0.516851607999968,"Retrieval",NA,NA,NA,"40","1_223.jpg","fruit","Encod_Stim.223.jpeg",2,NA
"466","6",1,"RetGoals_V1","2022.2.4",2,14,1,4,0.385149975000047,"Encoding",NA,NA,NA,"40","Encod_Stim.123.jpeg","fruit","",4,1
"467","6",1,"RetGoals_V1","2022.2.4",2,14,0,3,0.897581050000042,"External",1,6,NA,"40","ExAttn_Stim.123.jpeg","squares","",2,NA
"468","6",1,"RetGoals_V1","2022.2.4",2,14,1,4,1.03474645800014,"Internal",1,NA,0,"40","InternTask.123.jpeg","addsub","",4,NA
"469","6",1,"RetGoals_V1","2022.2.4",3,14,1,4,0.593634372999929,"Retrieval",NA,NA,NA,"40","1_170.jpg","building","Encod_Stim.170.jpeg",4,NA
"470","6",1,"RetGoals_V1","2022.2.4",3,14,1,4,0.464391648999879,"Encoding",NA,NA,NA,"40","Encod_Stim.118.jpeg","fruit","",4,1
"471","6",1,"RetGoals_V1","2022.2.4",3,14,0,2,0.314645523999786,"External",0,8,NA,"40","ExAttn_Stim.118.jpeg","triangles","",3,NA
"472","6",1,"RetGoals_V1","2022.2.4",3,14,1,4,0.925083422000114,"Internal",3,NA,0,"40","InternTask.118.jpeg","addsub","",4,NA
"473","6",1,"RetGoals_V1","2022.2.4",4,14,1,3,0.346814378000033,"Retrieval",NA,NA,NA,"40","1_48.jpg","vehicle","Encod_Stim.048.jpeg",3,NA
"474","6",1,"RetGoals_V1","2022.2.4",4,14,1,2,0.876738977000457,"Encoding",NA,NA,NA,"40","Encod_Stim.086.jpeg","building","",2,1
"475","6",1,"RetGoals_V1","2022.2.4",4,14,0,NA,NA,"External",1,7,NA,"40","ExAttn_Stim.086.jpeg","triangles","",4,NA
"476","6",1,"RetGoals_V1","2022.2.4",4,14,1,2,1.10066287800004,"Internal",15,NA,1,"40","InternTask.086.jpeg","addsub","",2,NA
"477","6",1,"RetGoals_V1","2022.2.4",5,14,1,3,0.299015032999648,"Retrieval",NA,NA,NA,"40","1_53.jpg","vehicle","Encod_Stim.053.jpeg",3,NA
"478","6",1,"RetGoals_V1","2022.2.4",5,14,1,2,0.384862703000124,"Encoding",NA,NA,NA,"40","Encod_Stim.019.jpeg","fruit","",2,0
"479","6",1,"RetGoals_V1","2022.2.4",5,14,0,3,0.455615968000018,"External",2,8,NA,"40","ExAttn_Stim.019.jpeg","circles","",2,NA
"480","6",1,"RetGoals_V1","2022.2.4",5,14,0,3,0.871502377000013,"Internal",4,NA,0,"40","InternTask.019.jpeg","addadd","",2,NA
"481","6",1,"RetGoals_V1","2022.2.4",1,15,1,3,0.802915405000192,"Retrieval",NA,NA,NA,"40","1_39.jpg","vehicle","Encod_Stim.039.jpeg",3,NA
"482","6",1,"RetGoals_V1","2022.2.4",1,15,0,NA,NA,"Encoding",NA,NA,NA,"40","Encod_Stim.290.jpeg","vehicle","",3,0
"483","6",1,"RetGoals_V1","2022.2.4",1,15,0,4,0.289977921000002,"External",0,6,NA,"40","ExAttn_Stim.290.jpeg","diamonds","",3,NA
"484","6",1,"RetGoals_V1","2022.2.4",1,15,0,NA,NA,"Internal",0,NA,0,"40","InternTask.290.jpeg","subsub","",3,NA
"485","6",1,"RetGoals_V1","2022.2.4",2,15,1,2,0.372186209000063,"Retrieval",NA,NA,NA,"40","1_205.jpg","fruit","Encod_Stim.205.jpeg",2,NA
"486","6",1,"RetGoals_V1","2022.2.4",2,15,1,4,0.144081937999943,"Encoding",NA,NA,NA,"40","Encod_Stim.183.jpeg","building","",4,1
"487","6",1,"RetGoals_V1","2022.2.4",2,15,0,NA,NA,"External",1,6,NA,"40","ExAttn_Stim.183.jpeg","stars","",2,NA
"488","6",1,"RetGoals_V1","2022.2.4",2,15,1,4,0.492883155000015,"Internal",25,NA,1,"40","InternTask.183.jpeg","subadd","",4,NA
"489","6",1,"RetGoals_V1","2022.2.4",3,15,0,4,0.318654798000296,"Retrieval",NA,NA,NA,"40","1_237.jpg","building","Encod_Stim.237.jpeg",3,NA
"490","6",1,"RetGoals_V1","2022.2.4",3,15,1,4,1.30413874899972,"Encoding",NA,NA,NA,"40","Encod_Stim.166.jpeg","vehicle","",4,1
"491","6",1,"RetGoals_V1","2022.2.4",3,15,1,3,0.481603226000459,"External",0,6,NA,"40","ExAttn_Stim.166.jpeg","squares","",3,NA
"492","6",1,"RetGoals_V1","2022.2.4",3,15,1,2,0.902797656000018,"Internal",1,NA,0,"40","InternTask.166.jpeg","subadd","",2,NA
"493","6",1,"RetGoals_V1","2022.2.4",4,15,1,2,0.483813178000162,"Retrieval",NA,NA,NA,"40","1_31.jpg","fruit","Encod_Stim.031.jpeg",2,NA
"494","6",1,"RetGoals_V1","2022.2.4",4,15,1,4,0.892272244000139,"Encoding",NA,NA,NA,"40","Encod_Stim.140.jpeg","vehicle","",4,1
"495","6",1,"RetGoals_V1","2022.2.4",4,15,1,2,1.22857804100016,"External",2,8,NA,"40","ExAttn_Stim.140.jpeg","squares","",2,NA
"496","6",1,"RetGoals_V1","2022.2.4",4,15,1,3,0.397218418000136,"Internal",0,NA,0,"40","InternTask.140.jpeg","addsub","",3,NA
"497","6",1,"RetGoals_V1","2022.2.4",5,15,0,1,0.571788847999812,"Retrieval",NA,NA,NA,"40","1_80.jpg","building","Encod_Stim.080.jpeg",4,NA
"498","6",1,"RetGoals_V1","2022.2.4",5,15,1,4,0.336532585000384,"Encoding",NA,NA,NA,"40","Encod_Stim.167.jpeg","vehicle","",4,1
"499","6",1,"RetGoals_V1","2022.2.4",5,15,0,2,0.778939197000398,"External",0,6,NA,"40","ExAttn_Stim.167.jpeg","squares","",3,NA
"500","6",1,"RetGoals_V1","2022.2.4",5,15,0,4,0.137067264999985,"Internal",1,NA,0,"40","InternTask.167.jpeg","subadd","",2,NA
"501","6",1,"RetGoals_V1","2022.2.4",1,16,0,3,0.343202942999994,"Retrieval",NA,NA,NA,"40","1_199.jpg","building","Encod_Stim.199.jpeg",4,NA
"502","6",1,"RetGoals_V1","2022.2.4",1,16,1,4,1.11059765299996,"Encoding",NA,NA,NA,"40","Encod_Stim.156.jpeg","vehicle","",4,0
"503","6",1,"RetGoals_V1","2022.2.4",1,16,1,4,1.22784172899998,"External",2,8,NA,"40","ExAttn_Stim.156.jpeg","squares","",4,NA
"504","6",1,"RetGoals_V1","2022.2.4",1,16,0,4,0.369681166999897,"Internal",3,NA,0,"40","InternTask.156.jpeg","subadd","",2,NA
"505","6",1,"RetGoals_V1","2022.2.4",2,16,0,4,0.338726516000122,"Retrieval",NA,NA,NA,"40","1_247.jpg","building","Encod_Stim.247.jpeg",3,NA
"506","6",1,"RetGoals_V1","2022.2.4",2,16,1,4,1.16046553900009,"Encoding",NA,NA,NA,"40","Encod_Stim.181.jpeg","building","",4,1
"507","6",1,"RetGoals_V1","2022.2.4",2,16,0,4,0.297795211000164,"External",1,6,NA,"40","ExAttn_Stim.181.jpeg","stars","",2,NA
"508","6",1,"RetGoals_V1","2022.2.4",2,16,1,4,0.814287618999913,"Internal",14,NA,0,"40","InternTask.181.jpeg","subadd","",4,NA
"509","6",1,"RetGoals_V1","2022.2.4",3,16,0,1,0.494250776000115,"Retrieval",NA,NA,NA,"40","1_152.jpg","vehicle","Encod_Stim.152.jpeg",3,NA
"510","6",1,"RetGoals_V1","2022.2.4",3,16,1,3,0.752269130000002,"Encoding",NA,NA,NA,"40","Encod_Stim.228.jpeg","fruit","",3,1
"511","6",1,"RetGoals_V1","2022.2.4",3,16,0,4,1.42868278600002,"External",0,6,NA,"40","ExAttn_Stim.228.jpeg","stars","",3,NA
"512","6",1,"RetGoals_V1","2022.2.4",3,16,0,NA,NA,"Internal",1,NA,0,"40","InternTask.228.jpeg","subsub","",2,NA
"513","6",1,"RetGoals_V1","2022.2.4",4,16,0,4,0.349811781999904,"Retrieval",NA,NA,NA,"40","1_244.jpg","building","Encod_Stim.244.jpeg",3,NA
"514","6",1,"RetGoals_V1","2022.2.4",4,16,1,2,0.428910128000041,"Encoding",NA,NA,NA,"40","Encod_Stim.052.jpeg","vehicle","",2,1
"515","6",1,"RetGoals_V1","2022.2.4",4,16,1,3,1.05629339199999,"External",0,7,NA,"40","ExAttn_Stim.052.jpeg","circles","",3,NA
"516","6",1,"RetGoals_V1","2022.2.4",4,16,1,3,0.451770520000025,"Internal",0,NA,0,"40","InternTask.052.jpeg","addadd","",3,NA
"517","6",1,"RetGoals_V1","2022.2.4",5,16,1,3,0.50580592,"Retrieval",NA,NA,NA,"40","1_56.jpg","vehicle","Encod_Stim.056.jpeg",3,NA
"518","6",1,"RetGoals_V1","2022.2.4",5,16,1,3,1.45663522600029,"Encoding",NA,NA,NA,"40","Encod_Stim.201.jpeg","fruit","",3,1
"519","6",1,"RetGoals_V1","2022.2.4",5,16,1,4,0.217297384000119,"External",1,6,NA,"40","ExAttn_Stim.201.jpeg","stars","",4,NA
"520","6",1,"RetGoals_V1","2022.2.4",5,16,0,NA,NA,"Internal",0,NA,0,"40","InternTask.201.jpeg","subadd","",3,NA
"521","6",1,"RetGoals_V1","2022.2.4",1,17,1,3,1.02172146400011,"Retrieval",NA,NA,NA,"40","1_163.jpg","vehicle","Encod_Stim.163.jpeg",3,NA
"522","6",1,"RetGoals_V1","2022.2.4",1,17,1,4,0.583812950000208,"Encoding",NA,NA,NA,"40","Encod_Stim.178.jpeg","building","",4,1
"523","6",1,"RetGoals_V1","2022.2.4",1,17,0,NA,NA,"External",0,8,NA,"40","ExAttn_Stim.178.jpeg","squares","",3,NA
"524","6",1,"RetGoals_V1","2022.2.4",1,17,1,4,0.897520345999908,"Internal",14,NA,0,"40","InternTask.178.jpeg","subadd","",4,NA
"525","6",1,"RetGoals_V1","2022.2.4",2,17,1,4,0.31436248499989,"Retrieval",NA,NA,NA,"40","1_92.jpg","building","Encod_Stim.092.jpeg",4,NA
"526","6",1,"RetGoals_V1","2022.2.4",2,17,1,4,0.239939010000114,"Encoding",NA,NA,NA,"40","Encod_Stim.177.jpeg","building","",4,1
"527","6",1,"RetGoals_V1","2022.2.4",2,17,0,2,0.284580661999996,"External",0,8,NA,"40","ExAttn_Stim.177.jpeg","squares","",3,NA
"528","6",1,"RetGoals_V1","2022.2.4",2,17,1,4,0.778365517000054,"Internal",5,NA,0,"40","InternTask.177.jpeg","subadd","",4,NA
"529","6",1,"RetGoals_V1","2022.2.4",3,17,1,2,0.407084214000349,"Retrieval",NA,NA,NA,"40","1_222.jpg","fruit","Encod_Stim.222.jpeg",2,NA
"530","6",1,"RetGoals_V1","2022.2.4",3,17,1,3,1.10419724600018,"Encoding",NA,NA,NA,"40","Encod_Stim.222.jpeg","fruit","",3,1
"531","6",1,"RetGoals_V1","2022.2.4",3,17,1,3,0.63334354300008,"External",0,5,NA,"40","ExAttn_Stim.222.jpeg","stars","",3,NA
"532","6",1,"RetGoals_V1","2022.2.4",3,17,1,3,0.893452041000216,"Internal",0,NA,0,"40","InternTask.222.jpeg","subadd","",3,NA
"533","6",1,"RetGoals_V1","2022.2.4",4,17,1,4,0.276120835000199,"Retrieval",NA,NA,NA,"40","1_99.jpg","building","Encod_Stim.099.jpeg",4,NA
"534","6",1,"RetGoals_V1","2022.2.4",4,17,1,2,1.24567818100007,"Encoding",NA,NA,NA,"40","Encod_Stim.048.jpeg","vehicle","",2,1
"535","6",1,"RetGoals_V1","2022.2.4",4,17,0,4,0.961648212999933,"External",0,6,NA,"40","ExAttn_Stim.048.jpeg","circles","",3,NA
"536","6",1,"RetGoals_V1","2022.2.4",4,17,1,4,1.25364102899988,"Internal",2,NA,0,"40","InternTask.048.jpeg","addadd","",4,NA
"537","6",1,"RetGoals_V1","2022.2.4",5,17,1,2,0.8419572090001,"Retrieval",NA,NA,NA,"40","1_14.jpg","fruit","Encod_Stim.014.jpeg",2,NA
"538","6",1,"RetGoals_V1","2022.2.4",5,17,1,2,0.9210760739997,"Encoding",NA,NA,NA,"40","Encod_Stim.028.jpeg","fruit","",2,1
"539","6",1,"RetGoals_V1","2022.2.4",5,17,1,4,0.357503388000111,"External",1,8,NA,"40","ExAttn_Stim.028.jpeg","circles","",4,NA
"540","6",1,"RetGoals_V1","2022.2.4",5,17,1,4,0.376742545000468,"Internal",6,NA,0,"40","InternTask.028.jpeg","addadd","",4,NA
"541","6",1,"RetGoals_V1","2022.2.4",1,18,0,NA,NA,"Retrieval",NA,NA,NA,"40","1_47.jpg","vehicle","Encod_Stim.047.jpeg",3,NA
"542","6",1,"RetGoals_V1","2022.2.4",1,18,1,4,0.743473405000202,"Encoding",NA,NA,NA,"40","Encod_Stim.161.jpeg","vehicle","",4,1
"543","6",1,"RetGoals_V1","2022.2.4",1,18,0,2,0.582570989000089,"External",0,5,NA,"40","ExAttn_Stim.161.jpeg","squares","",3,NA
"544","6",1,"RetGoals_V1","2022.2.4",1,18,1,2,0.665520744000048,"Internal",1,NA,0,"40","InternTask.161.jpeg","subadd","",2,NA
"545","6",1,"RetGoals_V1","2022.2.4",2,18,1,2,0.53013079100009,"Retrieval",NA,NA,NA,"40","1_1.jpg","fruit","Encod_Stim.001.jpeg",2,NA
"546","6",1,"RetGoals_V1","2022.2.4",2,18,1,3,0.576457042000072,"Encoding",NA,NA,NA,"40","Encod_Stim.250.jpeg","building","",3,0
"547","6",1,"RetGoals_V1","2022.2.4",2,18,0,4,0.693389132000163,"External",1,8,NA,"40","ExAttn_Stim.250.jpeg","diamonds","",2,NA
"548","6",1,"RetGoals_V1","2022.2.4",2,18,0,1,1.30472429900004,"Internal",1,NA,2,"40","InternTask.250.jpeg","subsub","",2,NA
"549","6",1,"RetGoals_V1","2022.2.4",3,18,0,3,0.355633895000153,"Retrieval",NA,NA,NA,"40","1_274.jpg","vehicle","Encod_Stim.274.jpeg",4,NA
"550","6",1,"RetGoals_V1","2022.2.4",3,18,0,NA,NA,"Encoding",NA,NA,NA,"40","Encod_Stim.137.jpeg","vehicle","",4,1
"551","6",1,"RetGoals_V1","2022.2.4",3,18,0,4,0.84363434599976,"External",2,8,NA,"40","ExAttn_Stim.137.jpeg","squares","",2,NA
"552","6",1,"RetGoals_V1","2022.2.4",3,18,1,3,0.702008122999757,"Internal",0,NA,0,"40","InternTask.137.jpeg","addsub","",3,NA
"553","6",1,"RetGoals_V1","2022.2.4",4,18,0,4,0.252907410000205,"Retrieval",NA,NA,NA,"40","1_249.jpg","building","Encod_Stim.249.jpeg",3,NA
"554","6",1,"RetGoals_V1","2022.2.4",4,18,1,4,0.661113401999899,"Encoding",NA,NA,NA,"40","Encod_Stim.128.jpeg","fruit","",4,1
"555","6",1,"RetGoals_V1","2022.2.4",4,18,1,2,0.255242916999975,"External",1,8,NA,"40","ExAttn_Stim.128.jpeg","squares","",2,NA
"556","6",1,"RetGoals_V1","2022.2.4",4,18,1,3,0.367566856999872,"Internal",0,NA,0,"40","InternTask.128.jpeg","addsub","",3,NA
"557","6",1,"RetGoals_V1","2022.2.4",5,18,1,2,0.397120615000347,"Retrieval",NA,NA,NA,"40","1_110.jpg","fruit","Encod_Stim.110.jpeg",2,NA
"558","6",1,"RetGoals_V1","2022.2.4",5,18,1,2,1.11390794300036,"Encoding",NA,NA,NA,"40","Encod_Stim.038.jpeg","vehicle","",2,1
"559","6",1,"RetGoals_V1","2022.2.4",5,18,1,4,0.291999424000039,"External",2,8,NA,"40","ExAttn_Stim.038.jpeg","circles","",4,NA
"560","6",1,"RetGoals_V1","2022.2.4",5,18,1,4,0.455305538000118,"Internal",6,NA,0,"40","InternTask.038.jpeg","addadd","",4,NA
"561","6",1,"RetGoals_V1","2022.2.4",1,19,1,3,0.625034104000122,"Retrieval",NA,NA,NA,"40","1_150.jpg","vehicle","Encod_Stim.150.jpeg",3,NA
"562","6",1,"RetGoals_V1","2022.2.4",1,19,0,NA,NA,"Encoding",NA,NA,NA,"40","Encod_Stim.243.jpeg","building","",3,0
"563","6",1,"RetGoals_V1","2022.2.4",1,19,0,NA,NA,"External",1,6,NA,"40","ExAttn_Stim.243.jpeg","diamonds","",2,NA
"564","6",1,"RetGoals_V1","2022.2.4",1,19,0,NA,NA,"Internal",1,NA,0,"40","InternTask.243.jpeg","subsub","",2,NA
"565","6",1,"RetGoals_V1","2022.2.4",2,19,1,2,0.369630170000107,"Retrieval",NA,NA,NA,"40","1_202.jpg","fruit","Encod_Stim.202.jpeg",2,NA
"566","6",1,"RetGoals_V1","2022.2.4",2,19,1,3,0.833801169999958,"Encoding",NA,NA,NA,"40","Encod_Stim.246.jpeg","building","",3,0
"567","6",1,"RetGoals_V1","2022.2.4",2,19,0,3,0.718556099000068,"External",1,7,NA,"40","ExAttn_Stim.246.jpeg","diamonds","",2,NA
"568","6",1,"RetGoals_V1","2022.2.4",2,19,0,NA,NA,"Internal",3,NA,1,"40","InternTask.246.jpeg","subsub","",2,NA
"569","6",1,"RetGoals_V1","2022.2.4",3,19,1,2,0.347343849000424,"Retrieval",NA,NA,NA,"40","1_12.jpg","fruit","Encod_Stim.012.jpeg",2,NA
"570","6",1,"RetGoals_V1","2022.2.4",3,19,1,3,0.785905773999673,"Encoding",NA,NA,NA,"40","Encod_Stim.289.jpeg","vehicle","",3,0
"571","6",1,"RetGoals_V1","2022.2.4",3,19,0,4,1.25508764499995,"External",0,6,NA,"40","ExAttn_Stim.289.jpeg","diamonds","",3,NA
"572","6",1,"RetGoals_V1","2022.2.4",3,19,0,1,1.17475101200029,"Internal",0,NA,0,"40","InternTask.289.jpeg","subsub","",3,NA
"573","6",1,"RetGoals_V1","2022.2.4",4,19,1,2,0.313580639999998,"Retrieval",NA,NA,NA,"40","1_233.jpg","fruit","Encod_Stim.233.jpeg",2,NA
"574","6",1,"RetGoals_V1","2022.2.4",4,19,1,3,0.734226919999799,"Encoding",NA,NA,NA,"40","Encod_Stim.244.jpeg","building","",3,0
"575","6",1,"RetGoals_V1","2022.2.4",4,19,0,NA,NA,"External",1,7,NA,"40","ExAttn_Stim.244.jpeg","diamonds","",2,NA
"576","6",1,"RetGoals_V1","2022.2.4",4,19,1,2,1.08580291900029,"Internal",1,NA,2,"40","InternTask.244.jpeg","subsub","",2,NA
"577","6",1,"RetGoals_V1","2022.2.4",5,19,0,3,0.323196331999895,"Retrieval",NA,NA,NA,"40","1_275.jpg","vehicle","Encod_Stim.275.jpeg",4,NA
"578","6",1,"RetGoals_V1","2022.2.4",5,19,1,3,1.15490462500014,"Encoding",NA,NA,NA,"40","Encod_Stim.225.jpeg","fruit","",3,1
"579","6",1,"RetGoals_V1","2022.2.4",5,19,1,3,0.34053501000011,"External",0,5,NA,"40","ExAttn_Stim.225.jpeg","stars","",3,NA
"580","6",1,"RetGoals_V1","2022.2.4",5,19,0,4,0.634692955999924,"Internal",0,NA,0,"40","InternTask.225.jpeg","subadd","",3,NA
"581","6",1,"RetGoals_V1","2022.2.4",1,20,0,4,1.37315207600017,"Retrieval",NA,NA,NA,"40","1_229.jpg","fruit","Encod_Stim.229.jpeg",2,NA
"582","6",1,"RetGoals_V1","2022.2.4",1,20,0,NA,NA,"Encoding",NA,NA,NA,"40","Encod_Stim.214.jpeg","fruit","",3,1
"583","6",1,"RetGoals_V1","2022.2.4",1,20,1,4,1.05243475399999,"External",2,7,NA,"40","ExAttn_Stim.214.jpeg","stars","",4,NA
"584","6",1,"RetGoals_V1","2022.2.4",1,20,0,4,0.24378260400016,"Internal",0,NA,0,"40","InternTask.214.jpeg","subadd","",3,NA
"585","6",1,"RetGoals_V1","2022.2.4",2,20,0,4,0.362290974000132,"Retrieval",NA,NA,NA,"40","1_236.jpg","building","Encod_Stim.236.jpeg",3,NA
"586","6",1,"RetGoals_V1","2022.2.4",2,20,1,4,1.31329024499991,"Encoding",NA,NA,NA,"40","Encod_Stim.127.jpeg","fruit","",4,1
"587","6",1,"RetGoals_V1","2022.2.4",2,20,1,2,0.542627032000098,"External",1,8,NA,"40","ExAttn_Stim.127.jpeg","squares","",2,NA
"588","6",1,"RetGoals_V1","2022.2.4",2,20,1,3,0.200874397999939,"Internal",0,NA,0,"40","InternTask.127.jpeg","addsub","",3,NA
"589","6",1,"RetGoals_V1","2022.2.4",3,20,1,4,0.499017260000017,"Retrieval",NA,NA,NA,"40","1_90.jpg","building","Encod_Stim.090.jpeg",4,NA
"590","6",1,"RetGoals_V1","2022.2.4",3,20,1,4,0.466397394000012,"Encoding",NA,NA,NA,"40","Encod_Stim.120.jpeg","fruit","",4,1
"591","6",1,"RetGoals_V1","2022.2.4",3,20,0,NA,NA,"External",0,8,NA,"40","ExAttn_Stim.120.jpeg","triangles","",3,NA
"592","6",1,"RetGoals_V1","2022.2.4",3,20,1,4,1.24490651800028,"Internal",2,NA,0,"40","InternTask.120.jpeg","addsub","",4,NA
"593","6",1,"RetGoals_V1","2022.2.4",4,20,0,NA,NA,"Retrieval",NA,NA,NA,"40","1_257.jpg","building","Encod_Stim.257.jpeg",3,NA
"594","6",1,"RetGoals_V1","2022.2.4",4,20,1,4,0.662380281000367,"Encoding",NA,NA,NA,"40","Encod_Stim.182.jpeg","building","",4,1
"595","6",1,"RetGoals_V1","2022.2.4",4,20,0,3,0.323022278000224,"External",1,6,NA,"40","ExAttn_Stim.182.jpeg","stars","",2,NA
"596","6",1,"RetGoals_V1","2022.2.4",4,20,1,4,0.77419746199979,"Internal",9,NA,1,"40","InternTask.182.jpeg","subadd","",4,NA
"597","6",1,"RetGoals_V1","2022.2.4",5,20,1,3,0.297784982000337,"Retrieval",NA,NA,NA,"40","1_151.jpg","vehicle","Encod_Stim.151.jpeg",3,NA
"598","6",1,"RetGoals_V1","2022.2.4",5,20,1,4,0.68353317399982,"Encoding",NA,NA,NA,"40","Encod_Stim.195.jpeg","building","",4,1
"599","6",1,"RetGoals_V1","2022.2.4",5,20,1,2,0.869212503999677,"External",2,7,NA,"40","ExAttn_Stim.195.jpeg","stars","",2,NA
"600","6",1,"RetGoals_V1","2022.2.4",5,20,1,4,0.845947256000215,"Internal",1,NA,0,"40","InternTask.195.jpeg","subadd","",4,NA
"601","6",1,"RetGoals_V1","2022.2.4",1,21,0,1,0.825628698000116,"Retrieval",NA,NA,NA,"40","1_241.jpg","building","Encod_Stim.241.jpeg",3,NA
"602","6",1,"RetGoals_V1","2022.2.4",1,21,0,4,0.319575332000056,"Encoding",NA,NA,NA,"40","Encod_Stim.229.jpeg","fruit","",3,0
"603","6",1,"RetGoals_V1","2022.2.4",1,21,1,3,1.102407615,"External",0,6,NA,"40","ExAttn_Stim.229.jpeg","stars","",3,NA
"604","6",1,"RetGoals_V1","2022.2.4",1,21,0,NA,NA,"Internal",1,NA,2,"40","InternTask.229.jpeg","subsub","",2,NA
"605","6",1,"RetGoals_V1","2022.2.4",2,21,1,4,0.542990224000221,"Retrieval",NA,NA,NA,"40","1_187.jpg","building","Encod_Stim.187.jpeg",4,NA
"606","6",1,"RetGoals_V1","2022.2.4",2,21,1,3,0.546083527000008,"Encoding",NA,NA,NA,"40","Encod_Stim.205.jpeg","fruit","",3,1
"607","6",1,"RetGoals_V1","2022.2.4",2,21,0,3,1.16697228700008,"External",1,7,NA,"40","ExAttn_Stim.205.jpeg","stars","",4,NA
"608","6",1,"RetGoals_V1","2022.2.4",2,21,1,3,0.262274118999983,"Internal",0,NA,0,"40","InternTask.205.jpeg","subadd","",3,NA
"609","6",1,"RetGoals_V1","2022.2.4",3,21,0,3,0.419633226000258,"Retrieval",NA,NA,NA,"40","1_286.jpg","vehicle","Encod_Stim.286.jpeg",4,NA
"610","6",1,"RetGoals_V1","2022.2.4",3,21,0,1,1.08439337600015,"Encoding",NA,NA,NA,"40","Encod_Stim.042.jpeg","vehicle","",2,1
"611","6",1,"RetGoals_V1","2022.2.4",3,21,0,4,0.944104489999916,"External",0,5,NA,"40","ExAttn_Stim.042.jpeg","circles","",3,NA
"612","6",1,"RetGoals_V1","2022.2.4",3,21,1,4,0.358169211000074,"Internal",4,NA,0,"40","InternTask.042.jpeg","addadd","",4,NA
"613","6",1,"RetGoals_V1","2022.2.4",4,21,1,4,0.86723123700034,"Retrieval",NA,NA,NA,"40","1_71.jpg","building","Encod_Stim.071.jpeg",4,NA
"614","6",1,"RetGoals_V1","2022.2.4",4,21,1,2,1.09505114400002,"Encoding",NA,NA,NA,"40","Encod_Stim.035.jpeg","vehicle","",2,1
"615","6",1,"RetGoals_V1","2022.2.4",4,21,1,4,0.70796508799998,"External",2,7,NA,"40","ExAttn_Stim.035.jpeg","circles","",4,NA
"616","6",1,"RetGoals_V1","2022.2.4",4,21,1,4,0.348151794999865,"Internal",1,NA,0,"40","InternTask.035.jpeg","addadd","",4,NA
"617","6",1,"RetGoals_V1","2022.2.4",5,21,1,2,0.427560044000018,"Retrieval",NA,NA,NA,"40","1_108.jpg","fruit","Encod_Stim.108.jpeg",2,NA
"618","6",1,"RetGoals_V1","2022.2.4",5,21,1,4,0.618796926000357,"Encoding",NA,NA,NA,"40","Encod_Stim.168.jpeg","building","",4,0
"619","6",1,"RetGoals_V1","2022.2.4",5,21,0,4,0.735714850999955,"External",0,6,NA,"40","ExAttn_Stim.168.jpeg","squares","",3,NA
"620","6",1,"RetGoals_V1","2022.2.4",5,21,1,2,0.601155785000117,"Internal",1,NA,0,"40","InternTask.168.jpeg","subadd","",2,NA
"621","6",1,"RetGoals_V1","2022.2.4",1,22,0,3,1.18264380199997,"Retrieval",NA,NA,NA,"40","1_268.jpg","vehicle","Encod_Stim.268.jpeg",4,NA
"622","6",1,"RetGoals_V1","2022.2.4",1,22,1,2,0.17805505899986,"Encoding",NA,NA,NA,"40","Encod_Stim.047.jpeg","vehicle","",2,0
"623","6",1,"RetGoals_V1","2022.2.4",1,22,0,4,0.639028018999909,"External",0,6,NA,"40","ExAttn_Stim.047.jpeg","circles","",3,NA
"624","6",1,"RetGoals_V1","2022.2.4",1,22,1,4,0.343050225000013,"Internal",7,NA,0,"40","InternTask.047.jpeg","addadd","",4,NA
"625","6",1,"RetGoals_V1","2022.2.4",2,22,1,2,0.341890370000044,"Retrieval",NA,NA,NA,"40","1_119.jpg","fruit","Encod_Stim.119.jpeg",2,NA
"626","6",1,"RetGoals_V1","2022.2.4",2,22,1,3,0.426406673999907,"Encoding",NA,NA,NA,"40","Encod_Stim.202.jpeg","fruit","",3,1
"627","6",1,"RetGoals_V1","2022.2.4",2,22,1,4,0.987086390000002,"External",1,6,NA,"40","ExAttn_Stim.202.jpeg","stars","",4,NA
"628","6",1,"RetGoals_V1","2022.2.4",2,22,1,3,0.0725171970001952,"Internal",0,NA,0,"40","InternTask.202.jpeg","subadd","",3,NA
"629","6",1,"RetGoals_V1","2022.2.4",3,22,0,3,0.591244540000332,"Retrieval",NA,NA,NA,"40","1_103.jpg","fruit","Encod_Stim.103.jpeg",2,NA
"630","6",1,"RetGoals_V1","2022.2.4",3,22,1,3,0.601702405999674,"Encoding",NA,NA,NA,"40","Encod_Stim.219.jpeg","fruit","",3,1
"631","6",1,"RetGoals_V1","2022.2.4",3,22,0,3,0.831927346999635,"External",2,8,NA,"40","ExAttn_Stim.219.jpeg","stars","",4,NA
"632","6",1,"RetGoals_V1","2022.2.4",3,22,1,3,0.981381997999904,"Internal",0,NA,0,"40","InternTask.219.jpeg","subadd","",3,NA
"633","6",1,"RetGoals_V1","2022.2.4",4,22,1,4,0.387841086000151,"Retrieval",NA,NA,NA,"40","1_182.jpg","building","Encod_Stim.182.jpeg",4,NA
"634","6",1,"RetGoals_V1","2022.2.4",4,22,1,2,1.40113588200023,"Encoding",NA,NA,NA,"40","Encod_Stim.005.jpeg","fruit","",2,1
"635","6",1,"RetGoals_V1","2022.2.4",4,22,0,3,0.586319833000232,"External",1,7,NA,"40","ExAttn_Stim.005.jpeg","circles","",2,NA
"636","6",1,"RetGoals_V1","2022.2.4",4,22,1,2,0.900460514999793,"Internal",4,NA,0,"40","InternTask.005.jpeg","addadd","",2,NA
"637","6",1,"RetGoals_V1","2022.2.4",5,22,1,2,0.327924751999888,"Retrieval",NA,NA,NA,"40","1_109.jpg","fruit","Encod_Stim.109.jpeg",2,NA
"638","6",1,"RetGoals_V1","2022.2.4",5,22,1,2,0.33943438099999,"Encoding",NA,NA,NA,"40","Encod_Stim.006.jpeg","fruit","",2,1
"639","6",1,"RetGoals_V1","2022.2.4",5,22,0,3,0.918103616999758,"External",1,7,NA,"40","ExAttn_Stim.006.jpeg","circles","",2,NA
"640","6",1,"RetGoals_V1","2022.2.4",5,22,1,2,0.319895280000253,"Internal",1,NA,0,"40","InternTask.006.jpeg","addadd","",2,NA
"641","6",1,"RetGoals_V1","2022.2.4",1,23,0,NA,NA,"Retrieval",NA,NA,NA,"40","1_126.jpg","fruit","Encod_Stim.126.jpeg",2,NA
"642","6",1,"RetGoals_V1","2022.2.4",1,23,0,4,1.17720496100009,"Encoding",NA,NA,NA,"40","Encod_Stim.207.jpeg","fruit","",3,1
"643","6",1,"RetGoals_V1","2022.2.4",1,23,0,NA,NA,"External",1,7,NA,"40","ExAttn_Stim.207.jpeg","stars","",4,NA
"644","6",1,"RetGoals_V1","2022.2.4",1,23,0,4,0.983942230000082,"Internal",0,NA,0,"40","InternTask.207.jpeg","subadd","",3,NA
"645","6",1,"RetGoals_V1","2022.2.4",2,23,1,4,0.39674941800007,"Retrieval",NA,NA,NA,"40","1_198.jpg","building","Encod_Stim.198.jpeg",4,NA
"646","6",1,"RetGoals_V1","2022.2.4",2,23,1,3,0.380033715000025,"Encoding",NA,NA,NA,"40","Encod_Stim.230.jpeg","fruit","",3,0
"647","6",1,"RetGoals_V1","2022.2.4",2,23,0,4,1.43241057500012,"External",0,6,NA,"40","ExAttn_Stim.230.jpeg","stars","",3,NA
"648","6",1,"RetGoals_V1","2022.2.4",2,23,0,1,0.884423765999998,"Internal",2,NA,0,"40","InternTask.230.jpeg","subsub","",2,NA
"649","6",1,"RetGoals_V1","2022.2.4",3,23,1,3,0.451759795000214,"Retrieval",NA,NA,NA,"40","1_54.jpg","vehicle","Encod_Stim.054.jpeg",3,NA
"650","6",1,"RetGoals_V1","2022.2.4",3,23,1,2,1.2030054010001,"Encoding",NA,NA,NA,"40","Encod_Stim.061.jpeg","vehicle","",2,1
"651","6",1,"RetGoals_V1","2022.2.4",3,23,0,4,1.3945903559997,"External",1,6,NA,"40","ExAttn_Stim.061.jpeg","triangles","",2,NA
"652","6",1,"RetGoals_V1","2022.2.4",3,23,1,3,0.835814168000013,"Internal",0,NA,0,"40","InternTask.061.jpeg","addadd","",3,NA
"653","6",1,"RetGoals_V1","2022.2.4",4,23,1,2,0.328680894000115,"Retrieval",NA,NA,NA,"40","1_128.jpg","fruit","Encod_Stim.128.jpeg",2,NA
"654","6",1,"RetGoals_V1","2022.2.4",4,23,1,3,0.303220031999842,"Encoding",NA,NA,NA,"40","Encod_Stim.266.jpeg","building","",3,0
"655","6",1,"RetGoals_V1","2022.2.4",4,23,1,4,0.943567294999809,"External",1,7,NA,"40","ExAttn_Stim.266.jpeg","diamonds","",4,NA
"656","6",1,"RetGoals_V1","2022.2.4",4,23,0,2,1.38004508000034,"Internal",2,NA,0,"40","InternTask.266.jpeg","subsub","",4,NA
"657","6",1,"RetGoals_V1","2022.2.4",5,23,1,3,0.287440645000004,"Retrieval",NA,NA,NA,"40","1_38.jpg","vehicle","Encod_Stim.038.jpeg",3,NA
"658","6",1,"RetGoals_V1","2022.2.4",5,23,1,3,0.306943637000074,"Encoding",NA,NA,NA,"40","Encod_Stim.282.jpeg","vehicle","",3,0
"659","6",1,"RetGoals_V1","2022.2.4",5,23,1,3,0.893857414000138,"External",0,5,NA,"40","ExAttn_Stim.282.jpeg","diamonds","",3,NA
"660","6",1,"RetGoals_V1","2022.2.4",5,23,1,3,0.470722081000019,"Internal",0,NA,0,"40","InternTask.282.jpeg","subsub","",3,NA
"661","6",1,"RetGoals_V1","2022.2.4",1,24,0,3,1.36485824599998,"Retrieval",NA,NA,NA,"40","1_23.jpg","fruit","Encod_Stim.023.jpeg",2,NA
"662","6",1,"RetGoals_V1","2022.2.4",1,24,1,4,0.305321063999997,"Encoding",NA,NA,NA,"40","Encod_Stim.132.jpeg","fruit","",4,0
"663","6",1,"RetGoals_V1","2022.2.4",1,24,1,2,0.401452938999853,"External",2,7,NA,"40","ExAttn_Stim.132.jpeg","squares","",2,NA
"664","6",1,"RetGoals_V1","2022.2.4",1,24,1,3,1.01993351100003,"Internal",0,NA,0,"40","InternTask.132.jpeg","addsub","",3,NA
"665","6",1,"RetGoals_V1","2022.2.4",2,24,1,3,0.354455243000018,"Retrieval",NA,NA,NA,"40","1_65.jpg","vehicle","Encod_Stim.065.jpeg",3,NA
"666","6",1,"RetGoals_V1","2022.2.4",2,24,1,3,1.41872986700008,"Encoding",NA,NA,NA,"40","Encod_Stim.296.jpeg","vehicle","",3,0
"667","6",1,"RetGoals_V1","2022.2.4",2,24,0,NA,NA,"External",0,8,NA,"40","ExAttn_Stim.296.jpeg","diamonds","",3,NA
"668","6",1,"RetGoals_V1","2022.2.4",2,24,0,NA,NA,"Internal",0,NA,0,"40","InternTask.296.jpeg","subsub","",3,NA
"669","6",1,"RetGoals_V1","2022.2.4",3,24,0,4,0.439286514999765,"Retrieval",NA,NA,NA,"40","1_265.jpg","building","Encod_Stim.265.jpeg",3,NA
"670","6",1,"RetGoals_V1","2022.2.4",3,24,1,2,0.539186507000466,"Encoding",NA,NA,NA,"40","Encod_Stim.054.jpeg","vehicle","",2,1
"671","6",1,"RetGoals_V1","2022.2.4",3,24,1,3,0.541783257000077,"External",0,7,NA,"40","ExAttn_Stim.054.jpeg","circles","",3,NA
"672","6",1,"RetGoals_V1","2022.2.4",3,24,1,3,0.517956171000094,"Internal",0,NA,0,"40","InternTask.054.jpeg","addadd","",3,NA
"673","6",1,"RetGoals_V1","2022.2.4",4,24,0,3,1.05069749300031,"Retrieval",NA,NA,NA,"40","1_26.jpg","fruit","Encod_Stim.026.jpeg",2,NA
"674","6",1,"RetGoals_V1","2022.2.4",4,24,1,4,0.686999938000042,"Encoding",NA,NA,NA,"40","Encod_Stim.165.jpeg","vehicle","",4,1
"675","6",1,"RetGoals_V1","2022.2.4",4,24,0,2,1.07072230900025,"External",0,5,NA,"40","ExAttn_Stim.165.jpeg","squares","",3,NA
"676","6",1,"RetGoals_V1","2022.2.4",4,24,0,NA,NA,"Internal",1,NA,0,"40","InternTask.165.jpeg","subadd","",2,NA
"677","6",1,"RetGoals_V1","2022.2.4",5,24,1,2,0.369638819000045,"Retrieval",NA,NA,NA,"40","1_101.jpg","fruit","Encod_Stim.101.jpeg",2,NA
"678","6",1,"RetGoals_V1","2022.2.4",5,24,1,2,0.707201692000069,"Encoding",NA,NA,NA,"40","Encod_Stim.014.jpeg","fruit","",2,1
"679","6",1,"RetGoals_V1","2022.2.4",5,24,0,NA,NA,"External",2,7,NA,"40","ExAttn_Stim.014.jpeg","circles","",2,NA
"680","6",1,"RetGoals_V1","2022.2.4",5,24,1,2,0.0871076060001883,"Internal",5,NA,0,"40","InternTask.014.jpeg","addadd","",2,NA
"681","6",1,"RetGoals_V1","2022.2.4",1,25,0,1,0.481171696999979,"Retrieval",NA,NA,NA,"40","1_159.jpg","vehicle","Encod_Stim.159.jpeg",3,NA
"682","6",1,"RetGoals_V1","2022.2.4",1,25,1,2,0.0888231320001864,"Encoding",NA,NA,NA,"40","Encod_Stim.023.jpeg","fruit","",2,0
"683","6",1,"RetGoals_V1","2022.2.4",1,25,1,4,0.239503317000015,"External",1,6,NA,"40","ExAttn_Stim.023.jpeg","circles","",4,NA
"684","6",1,"RetGoals_V1","2022.2.4",1,25,1,2,0.0794177649999597,"Internal",5,NA,0,"40","InternTask.023.jpeg","addadd","",2,NA
"685","6",1,"RetGoals_V1","2022.2.4",2,25,1,2,1.36954548000011,"Retrieval",NA,NA,NA,"40","1_3.jpg","fruit","Encod_Stim.003.jpeg",2,NA
"686","6",1,"RetGoals_V1","2022.2.4",2,25,0,NA,NA,"Encoding",NA,NA,NA,"40","Encod_Stim.058.jpeg","vehicle","",2,1
"687","6",1,"RetGoals_V1","2022.2.4",2,25,0,2,0.707310962999998,"External",0,8,NA,"40","ExAttn_Stim.058.jpeg","circles","",3,NA
"688","6",1,"RetGoals_V1","2022.2.4",2,25,0,1,0.940105090000031,"Internal",0,NA,0,"40","InternTask.058.jpeg","addadd","",3,NA
"689","6",1,"RetGoals_V1","2022.2.4",3,25,1,2,0.570061608999765,"Retrieval",NA,NA,NA,"40","1_20.jpg","fruit","Encod_Stim.020.jpeg",2,NA
"690","6",1,"RetGoals_V1","2022.2.4",3,25,1,4,0.547567245000153,"Encoding",NA,NA,NA,"40","Encod_Stim.185.jpeg","building","",4,1
"691","6",1,"RetGoals_V1","2022.2.4",3,25,0,4,0.671099139999967,"External",1,7,NA,"40","ExAttn_Stim.185.jpeg","stars","",2,NA
"692","6",1,"RetGoals_V1","2022.2.4",3,25,0,NA,NA,"Internal",1,NA,0,"40","InternTask.185.jpeg","subadd","",4,NA
"693","6",1,"RetGoals_V1","2022.2.4",4,25,1,3,0.307789073000038,"Retrieval",NA,NA,NA,"40","1_162.jpg","vehicle","Encod_Stim.162.jpeg",3,NA
"694","6",1,"RetGoals_V1","2022.2.4",4,25,1,2,0.423662130000082,"Encoding",NA,NA,NA,"40","Encod_Stim.099.jpeg","building","",2,1
"695","6",1,"RetGoals_V1","2022.2.4",4,25,1,4,0.352418047999834,"External",2,8,NA,"40","ExAttn_Stim.099.jpeg","triangles","",4,NA
"696","6",1,"RetGoals_V1","2022.2.4",4,25,1,2,0.360921928000096,"Internal",17,NA,1,"40","InternTask.099.jpeg","addsub","",2,NA
"697","6",1,"RetGoals_V1","2022.2.4",5,25,1,2,0.439461249999965,"Retrieval",NA,NA,NA,"40","1_32.jpg","fruit","Encod_Stim.032.jpeg",2,NA
"698","6",1,"RetGoals_V1","2022.2.4",5,25,1,2,0.835988802999907,"Encoding",NA,NA,NA,"40","Encod_Stim.032.jpeg","fruit","",2,1
"699","6",1,"RetGoals_V1","2022.2.4",5,25,1,4,0.422876762000158,"External",2,7,NA,"40","ExAttn_Stim.032.jpeg","circles","",4,NA
"700","6",1,"RetGoals_V1","2022.2.4",5,25,1,4,0.840497804000222,"Internal",3,NA,0,"40","InternTask.032.jpeg","addadd","",4,NA
"701","6",1,"RetGoals_V1","2022.2.4",1,26,0,1,1.27420635700008,"Retrieval",NA,NA,NA,"40","1_272.jpg","vehicle","Encod_Stim.272.jpeg",4,NA
"702","6",1,"RetGoals_V1","2022.2.4",1,26,1,4,0.0665300300001377,"Encoding",NA,NA,NA,"40","Encod_Stim.130.jpeg","fruit","",4,0
"703","6",1,"RetGoals_V1","2022.2.4",1,26,1,2,0.201571569999885,"External",1,8,NA,"40","ExAttn_Stim.130.jpeg","squares","",2,NA
"704","6",1,"RetGoals_V1","2022.2.4",1,26,0,NA,NA,"Internal",0,NA,0,"40","InternTask.130.jpeg","addsub","",3,NA
"705","6",1,"RetGoals_V1","2022.2.4",2,26,1,4,0.75142290399998,"Retrieval",NA,NA,NA,"40","1_181.jpg","building","Encod_Stim.181.jpeg",4,NA
"706","6",1,"RetGoals_V1","2022.2.4",2,26,0,NA,NA,"Encoding",NA,NA,NA,"40","Encod_Stim.273.jpeg","vehicle","",3,0
"707","6",1,"RetGoals_V1","2022.2.4",2,26,1,4,0.300224369999967,"External",2,7,NA,"40","ExAttn_Stim.273.jpeg","diamonds","",4,NA
"708","6",1,"RetGoals_V1","2022.2.4",2,26,0,NA,NA,"Internal",7,NA,1,"40","InternTask.273.jpeg","subsub","",4,NA
"709","6",1,"RetGoals_V1","2022.2.4",3,26,1,3,0.319700823999881,"Retrieval",NA,NA,NA,"40","1_46.jpg","vehicle","Encod_Stim.046.jpeg",3,NA
"710","6",1,"RetGoals_V1","2022.2.4",3,26,1,2,0.675167874000124,"Encoding",NA,NA,NA,"40","Encod_Stim.093.jpeg","building","",2,1
"711","6",1,"RetGoals_V1","2022.2.4",3,26,0,3,0.695756214000028,"External",2,7,NA,"40","ExAttn_Stim.093.jpeg","triangles","",4,NA
"712","6",1,"RetGoals_V1","2022.2.4",3,26,1,2,0.262112840000043,"Internal",8,NA,1,"40","InternTask.093.jpeg","addsub","",2,NA
"713","6",1,"RetGoals_V1","2022.2.4",4,26,1,2,1.00391835099975,"Retrieval",NA,NA,NA,"40","1_5.jpg","fruit","Encod_Stim.005.jpeg",2,NA
"714","6",1,"RetGoals_V1","2022.2.4",4,26,0,NA,NA,"Encoding",NA,NA,NA,"40","Encod_Stim.114.jpeg","fruit","",4,1
"715","6",1,"RetGoals_V1","2022.2.4",4,26,0,2,0.575001958999962,"External",0,7,NA,"40","ExAttn_Stim.114.jpeg","triangles","",3,NA
"716","6",1,"RetGoals_V1","2022.2.4",4,26,1,4,0.735684548999814,"Internal",4,NA,0,"40","InternTask.114.jpeg","addsub","",4,NA
"717","6",1,"RetGoals_V1","2022.2.4",5,26,1,3,0.308242871000346,"Retrieval",NA,NA,NA,"40","1_144.jpg","vehicle","Encod_Stim.144.jpeg",3,NA
"718","6",1,"RetGoals_V1","2022.2.4",5,26,1,2,1.35560590100016,"Encoding",NA,NA,NA,"40","Encod_Stim.060.jpeg","vehicle","",2,1
"719","6",1,"RetGoals_V1","2022.2.4",5,26,0,4,0.500746128000117,"External",0,8,NA,"40","ExAttn_Stim.060.jpeg","circles","",3,NA
"720","6",1,"RetGoals_V1","2022.2.4",5,26,1,3,0.587539070000219,"Internal",0,NA,0,"40","InternTask.060.jpeg","addadd","",3,NA
"721","6",1,"RetGoals_V1","2022.2.4",1,27,1,2,0.58079622300005,"Retrieval",NA,NA,NA,"40","1_216.jpg","fruit","Encod_Stim.216.jpeg",2,NA
"722","6",1,"RetGoals_V1","2022.2.4",1,27,1,4,0.314820107000003,"Encoding",NA,NA,NA,"40","Encod_Stim.116.jpeg","fruit","",4,1
"723","6",1,"RetGoals_V1","2022.2.4",1,27,0,2,0.335455215999843,"External",0,8,NA,"40","ExAttn_Stim.116.jpeg","triangles","",3,NA
"724","6",1,"RetGoals_V1","2022.2.4",1,27,0,3,1.06737551800001,"Internal",1,NA,0,"40","InternTask.116.jpeg","addsub","",4,NA
"725","6",1,"RetGoals_V1","2022.2.4",2,27,1,2,0.373187308000013,"Retrieval",NA,NA,NA,"40","1_127.jpg","fruit","Encod_Stim.127.jpeg",2,NA
"726","6",1,"RetGoals_V1","2022.2.4",2,27,1,3,0.395466627000076,"Encoding",NA,NA,NA,"40","Encod_Stim.287.jpeg","vehicle","",3,0
"727","6",1,"RetGoals_V1","2022.2.4",2,27,0,NA,NA,"External",0,6,NA,"40","ExAttn_Stim.287.jpeg","diamonds","",3,NA
"728","6",1,"RetGoals_V1","2022.2.4",2,27,1,3,0.786075363999942,"Internal",0,NA,0,"40","InternTask.287.jpeg","subsub","",3,NA
"729","6",1,"RetGoals_V1","2022.2.4",3,27,1,4,0.30394840699995,"Retrieval",NA,NA,NA,"40","1_83.jpg","building","Encod_Stim.083.jpeg",4,NA
"730","6",1,"RetGoals_V1","2022.2.4",3,27,1,3,0.763880097000253,"Encoding",NA,NA,NA,"40","Encod_Stim.265.jpeg","building","",3,0
"731","6",1,"RetGoals_V1","2022.2.4",3,27,0,NA,NA,"External",1,7,NA,"40","ExAttn_Stim.265.jpeg","diamonds","",4,NA
"732","6",1,"RetGoals_V1","2022.2.4",3,27,0,2,0.568354671000122,"Internal",1,NA,0,"40","InternTask.265.jpeg","subsub","",4,NA
"733","6",1,"RetGoals_V1","2022.2.4",4,27,0,3,0.304088594999882,"Retrieval",NA,NA,NA,"40","1_281.jpg","vehicle","Encod_Stim.281.jpeg",4,NA
"734","6",1,"RetGoals_V1","2022.2.4",4,27,1,3,0.832478412000398,"Encoding",NA,NA,NA,"40","Encod_Stim.255.jpeg","building","",3,0
"735","6",1,"RetGoals_V1","2022.2.4",4,27,0,4,0.588178187999745,"External",2,7,NA,"40","ExAttn_Stim.255.jpeg","diamonds","",2,NA
"736","6",1,"RetGoals_V1","2022.2.4",4,27,1,4,0.685945539999864,"Internal",3,NA,1,"40","InternTask.255.jpeg","subsub","",4,NA
"737","6",1,"RetGoals_V1","2022.2.4",5,27,0,3,0.835254769000073,"Retrieval",NA,NA,NA,"40","1_19.jpg","fruit","Encod_Stim.019.jpeg",2,NA
"738","6",1,"RetGoals_V1","2022.2.4",5,27,0,NA,NA,"Encoding",NA,NA,NA,"40","Encod_Stim.056.jpeg","vehicle","",2,1
"739","6",1,"RetGoals_V1","2022.2.4",5,27,1,3,0.907262107000349,"External",0,8,NA,"40","ExAttn_Stim.056.jpeg","circles","",3,NA
"740","6",1,"RetGoals_V1","2022.2.4",5,27,1,3,0.267134656999986,"Internal",0,NA,0,"40","InternTask.056.jpeg","addadd","",3,NA
"741","6",1,"RetGoals_V1","2022.2.4",1,28,1,2,0.330228473000204,"Retrieval",NA,NA,NA,"40","1_214.jpg","fruit","Encod_Stim.214.jpeg",2,NA
"742","6",1,"RetGoals_V1","2022.2.4",1,28,0,NA,NA,"Encoding",NA,NA,NA,"40","Encod_Stim.087.jpeg","building","",2,0
"743","6",1,"RetGoals_V1","2022.2.4",1,28,1,4,0.271191715999919,"External",1,7,NA,"40","ExAttn_Stim.087.jpeg","triangles","",4,NA
"744","6",1,"RetGoals_V1","2022.2.4",1,28,1,2,1.43586162700007,"Internal",5,NA,0,"40","InternTask.087.jpeg","addsub","",2,NA
"745","6",1,"RetGoals_V1","2022.2.4",2,28,0,3,0.386863027000061,"Retrieval",NA,NA,NA,"40","1_296.jpg","vehicle","Encod_Stim.296.jpeg",4,NA
"746","6",1,"RetGoals_V1","2022.2.4",2,28,1,2,0.308826627000087,"Encoding",NA,NA,NA,"40","Encod_Stim.001.jpeg","fruit","",2,1
"747","6",1,"RetGoals_V1","2022.2.4",2,28,0,4,1.06939912500019,"External",1,6,NA,"40","ExAttn_Stim.001.jpeg","circles","",2,NA
"748","6",1,"RetGoals_V1","2022.2.4",2,28,0,1,0.688394277000214,"Internal",1,NA,0,"40","InternTask.001.jpeg","addadd","",2,NA
"749","6",1,"RetGoals_V1","2022.2.4",3,28,1,2,0.504712589000007,"Retrieval",NA,NA,NA,"40","1_118.jpg","fruit","Encod_Stim.118.jpeg",2,NA
"750","6",1,"RetGoals_V1","2022.2.4",3,28,1,3,1.1395494849998,"Encoding",NA,NA,NA,"40","Encod_Stim.258.jpeg","building","",3,0
"751","6",1,"RetGoals_V1","2022.2.4",3,28,1,2,1.32034709900012,"External",2,8,NA,"40","ExAttn_Stim.258.jpeg","diamonds","",2,NA
"752","6",1,"RetGoals_V1","2022.2.4",3,28,1,4,1.41503722300007,"Internal",1,NA,0,"40","InternTask.258.jpeg","subsub","",4,NA
"753","6",1,"RetGoals_V1","2022.2.4",4,28,1,2,0.312600203000272,"Retrieval",NA,NA,NA,"40","1_220.jpg","fruit","Encod_Stim.220.jpeg",2,NA
"754","6",1,"RetGoals_V1","2022.2.4",4,28,0,1,1.16116220299995,"Encoding",NA,NA,NA,"40","Encod_Stim.026.jpeg","fruit","",2,0
"755","6",1,"RetGoals_V1","2022.2.4",4,28,1,4,0.834468382000011,"External",1,7,NA,"40","ExAttn_Stim.026.jpeg","circles","",4,NA
"756","6",1,"RetGoals_V1","2022.2.4",4,28,1,4,0.496686976000035,"Internal",5,NA,0,"40","InternTask.026.jpeg","addadd","",4,NA
"757","6",1,"RetGoals_V1","2022.2.4",5,28,0,4,0.351620455000045,"Retrieval",NA,NA,NA,"40","1_252.jpg","building","Encod_Stim.252.jpeg",3,NA
"758","6",1,"RetGoals_V1","2022.2.4",5,28,1,4,0.381464653999899,"Encoding",NA,NA,NA,"40","Encod_Stim.113.jpeg","fruit","",4,1
"759","6",1,"RetGoals_V1","2022.2.4",5,28,1,3,0.307251844999826,"External",0,7,NA,"40","ExAttn_Stim.113.jpeg","triangles","",3,NA
"760","6",1,"RetGoals_V1","2022.2.4",5,28,1,4,0.323424094000018,"Internal",1,NA,0,"40","InternTask.113.jpeg","addsub","",4,NA
"761","6",1,"RetGoals_V1","2022.2.4",1,29,0,4,1.15383252500004,"Retrieval",NA,NA,NA,"40","1_243.jpg","building","Encod_Stim.243.jpeg",3,NA
"762","6",1,"RetGoals_V1","2022.2.4",1,29,0,NA,NA,"Encoding",NA,NA,NA,"40","Encod_Stim.216.jpeg","fruit","",3,1
"763","6",1,"RetGoals_V1","2022.2.4",1,29,1,4,0.888195663999966,"External",2,8,NA,"40","ExAttn_Stim.216.jpeg","stars","",4,NA
"764","6",1,"RetGoals_V1","2022.2.4",1,29,1,3,0.021764113000188,"Internal",0,NA,0,"40","InternTask.216.jpeg","subadd","",3,NA
"765","6",1,"RetGoals_V1","2022.2.4",2,29,1,2,1.0244582310001,"Retrieval",NA,NA,NA,"40","1_123.jpg","fruit","Encod_Stim.123.jpeg",2,NA
"766","6",1,"RetGoals_V1","2022.2.4",2,29,1,2,0.301946269000098,"Encoding",NA,NA,NA,"40","Encod_Stim.092.jpeg","building","",2,1
"767","6",1,"RetGoals_V1","2022.2.4",2,29,1,4,0.383354924000002,"External",2,7,NA,"40","ExAttn_Stim.092.jpeg","triangles","",4,NA
"768","6",1,"RetGoals_V1","2022.2.4",2,29,0,1,1.06488682000003,"Internal",7,NA,1,"40","InternTask.092.jpeg","addsub","",2,NA
"769","6",1,"RetGoals_V1","2022.2.4",3,29,0,4,0.39297731299979,"Retrieval",NA,NA,NA,"40","1_242.jpg","building","Encod_Stim.242.jpeg",3,NA
"770","6",1,"RetGoals_V1","2022.2.4",3,29,1,2,0.372762720000026,"Encoding",NA,NA,NA,"40","Encod_Stim.090.jpeg","building","",2,1
"771","6",1,"RetGoals_V1","2022.2.4",3,29,0,NA,NA,"External",1,8,NA,"40","ExAttn_Stim.090.jpeg","triangles","",4,NA
"772","6",1,"RetGoals_V1","2022.2.4",3,29,1,2,0.593869736000158,"Internal",14,NA,1,"40","InternTask.090.jpeg","addsub","",2,NA
"773","6",1,"RetGoals_V1","2022.2.4",4,29,1,2,0.290028346999804,"Retrieval",NA,NA,NA,"40","1_11.jpg","fruit","Encod_Stim.011.jpeg",2,NA
"774","6",1,"RetGoals_V1","2022.2.4",4,29,1,4,1.40795752100024,"Encoding",NA,NA,NA,"40","Encod_Stim.175.jpeg","building","",4,1
"775","6",1,"RetGoals_V1","2022.2.4",4,29,0,2,0.612965900999768,"External",0,7,NA,"40","ExAttn_Stim.175.jpeg","squares","",3,NA
"776","6",1,"RetGoals_V1","2022.2.4",4,29,0,4,0.667021844000317,"Internal",1,NA,0,"40","InternTask.175.jpeg","subadd","",2,NA
"777","6",1,"RetGoals_V1","2022.2.4",5,29,0,3,0.320134006000387,"Retrieval",NA,NA,NA,"40","1_280.jpg","vehicle","Encod_Stim.280.jpeg",4,NA
"778","6",1,"RetGoals_V1","2022.2.4",5,29,1,4,0.373199806000173,"Encoding",NA,NA,NA,"40","Encod_Stim.193.jpeg","building","",4,1
"779","6",1,"RetGoals_V1","2022.2.4",5,29,0,3,0.196237550999683,"External",2,7,NA,"40","ExAttn_Stim.193.jpeg","stars","",2,NA
