"","participant","session","expName","psychopyVersion","block_num","trial_num","corr","resp","rt","task","magnitude","num_big","has_neg","block_type"
"1","P1",1,"RetGoals_V1","2022.2.4",1,1,0,2,1.26027343,"External",0,6,NA,"40"
"2","P1",1,"RetGoals_V1","2022.2.4",1,2,0,2,1.060717616,"External",1,6,NA,"40"
"3","P1",1,"RetGoals_V1","2022.2.4",1,3,1,2,1.126989462,"External",1,7,NA,"40"
"4","P1",1,"RetGoals_V1","2022.2.4",1,4,0,4,0.686441447,"External",2,8,NA,"40"
"5","P1",1,"RetGoals_V1","2022.2.4",1,5,1,2,0.280522592,"External",2,7,NA,"40"
"6","P1",1,"RetGoals_V1","2022.2.4",1,6,1,4,0.289065603,"External",1,8,NA,"40"
"7","P1",1,"RetGoals_V1","2022.2.4",1,7,1,3,0.690986408,"External",0,7,NA,"40"
"8","P1",1,"RetGoals_V1","2022.2.4",1,8,1,4,0.733735155,"External",1,7,NA,"40"
"9","P1",1,"RetGoals_V1","2022.2.4",1,9,0,NA,NA,"External",1,8,NA,"40"
"10","P1",1,"RetGoals_V1","2022.2.4",1,10,0,4,1.020131667,"External",0,5,NA,"40"
"11","P1",1,"RetGoals_V1","2022.2.4",1,11,1,2,0.599539206,"External",2,8,NA,"40"
"12","P1",1,"RetGoals_V1","2022.2.4",1,12,0,4,0.860648862,"External",0,6,NA,"40"
"13","P1",1,"RetGoals_V1","2022.2.4",1,13,1,4,0.399621641,"External",2,8,NA,"40"
"14","P1",1,"RetGoals_V1","2022.2.4",1,14,1,2,0.597140128,"External",1,7,NA,"40"
"15","P1",1,"RetGoals_V1","2022.2.4",1,15,1,2,0.320875993,"External",2,8,NA,"40"
"16","P1",1,"RetGoals_V1","2022.2.4",1,16,0,4,1.120570264,"External",2,8,NA,"40"
"17","P1",1,"RetGoals_V1","2022.2.4",1,17,0,3,1.192335398,"External",1,6,NA,"40"
"18","P1",1,"RetGoals_V1","2022.2.4",1,18,0,3,1.237869772,"External",1,7,NA,"40"
"19","P1",1,"RetGoals_V1","2022.2.4",1,19,0,4,0.487346732,"External",2,8,NA,"40"
"20","P1",1,"RetGoals_V1","2022.2.4",1,20,1,4,0.833488422,"External",1,7,NA,"40"
"21","P1",1,"RetGoals_V1","2022.2.4",1,21,0,3,1.13165394,"External",2,8,NA,"40"
"22","P1",1,"RetGoals_V1","2022.2.4",1,22,0,NA,NA,"External",0,5,NA,"40"
"23","P1",1,"RetGoals_V1","2022.2.4",1,23,0,4,0.786780095,"External",0,8,NA,"40"
"24","P1",1,"RetGoals_V1","2022.2.4",1,24,1,2,1.016488936,"External",1,6,NA,"40"
"25","P1",1,"RetGoals_V1","2022.2.4",1,25,1,2,1.275735107,"External",2,8,NA,"40"
"26","P1",1,"RetGoals_V1","2022.2.4",1,26,0,NA,NA,"External",2,8,NA,"40"
"27","P1",1,"RetGoals_V1","2022.2.4",1,27,0,2,0.461247858,"External",0,7,NA,"40"
"28","P1",1,"RetGoals_V1","2022.2.4",1,28,0,2,0.623861183,"External",0,8,NA,"40"
"29","P1",1,"RetGoals_V1","2022.2.4",1,29,1,3,0.924279305,"External",0,5,NA,"40"
"30","P1",1,"RetGoals_V1","2022.2.4",1,30,1,2,0.922641491,"External",2,7,NA,"40"
"31","P1",1,"RetGoals_V1","2022.2.4",1,31,0,4,0.978185374,"External",0,5,NA,"40"
"32","P1",1,"RetGoals_V1","2022.2.4",1,32,0,3,1.36855633,"External",1,8,NA,"40"
"33","P1",1,"RetGoals_V1","2022.2.4",1,33,0,NA,NA,"External",0,7,NA,"40"
"34","P1",1,"RetGoals_V1","2022.2.4",1,34,1,2,1.405169767,"External",1,7,NA,"40"
"35","P1",1,"RetGoals_V1","2022.2.4",1,35,1,3,0.944156525,"External",0,5,NA,"40"
"36","P1",1,"RetGoals_V1","2022.2.4",1,36,0,4,1.192487767,"External",2,8,NA,"40"
"37","P1",1,"RetGoals_V1","2022.2.4",1,37,1,4,0.419394396,"External",2,8,NA,"40"
"38","P1",1,"RetGoals_V1","2022.2.4",1,38,0,NA,NA,"External",1,6,NA,"40"
"39","P1",1,"RetGoals_V1","2022.2.4",1,39,0,2,0.792482241,"External",0,6,NA,"40"
"40","P1",1,"RetGoals_V1","2022.2.4",1,40,1,2,0.372456888,"External",2,7,NA,"40"
"41","P1",1,"RetGoals_V1","2022.2.4",1,1,1,3,1.1318772,"Encoding",NA,NA,NA,"40"
"42","P1",1,"RetGoals_V1","2022.2.4",1,2,1,4,0.690491919,"Encoding",NA,NA,NA,"40"
"43","P1",1,"RetGoals_V1","2022.2.4",1,3,1,2,1.202518342,"Encoding",NA,NA,NA,"40"
"44","P1",1,"RetGoals_V1","2022.2.4",1,4,1,3,0.627702814,"Encoding",NA,NA,NA,"40"
"45","P1",1,"RetGoals_V1","2022.2.4",1,5,1,2,0.836324613,"Encoding",NA,NA,NA,"40"
"46","P1",1,"RetGoals_V1","2022.2.4",1,6,1,3,1.41263066,"Encoding",NA,NA,NA,"40"
"47","P1",1,"RetGoals_V1","2022.2.4",1,7,1,2,0.533225263,"Encoding",NA,NA,NA,"40"
"48","P1",1,"RetGoals_V1","2022.2.4",1,8,1,2,1.341374217,"Encoding",NA,NA,NA,"40"
"49","P1",1,"RetGoals_V1","2022.2.4",1,9,1,2,1.356928802,"Encoding",NA,NA,NA,"40"
"50","P1",1,"RetGoals_V1","2022.2.4",1,10,1,2,0.821670735,"Encoding",NA,NA,NA,"40"
"51","P1",1,"RetGoals_V1","2022.2.4",1,11,1,3,0.693720048,"Encoding",NA,NA,NA,"40"
"52","P1",1,"RetGoals_V1","2022.2.4",1,12,1,3,0.997674144,"Encoding",NA,NA,NA,"40"
"53","P1",1,"RetGoals_V1","2022.2.4",1,13,1,3,1.430651213,"Encoding",NA,NA,NA,"40"
"54","P1",1,"RetGoals_V1","2022.2.4",1,14,1,4,1.119508772,"Encoding",NA,NA,NA,"40"
"55","P1",1,"RetGoals_V1","2022.2.4",1,15,0,NA,NA,"Encoding",NA,NA,NA,"40"
"56","P1",1,"RetGoals_V1","2022.2.4",1,16,0,NA,NA,"Encoding",NA,NA,NA,"40"
"57","P1",1,"RetGoals_V1","2022.2.4",1,17,1,3,0.518482619,"Encoding",NA,NA,NA,"40"
"58","P1",1,"RetGoals_V1","2022.2.4",1,18,1,3,1.047715214,"Encoding",NA,NA,NA,"40"
"59","P1",1,"RetGoals_V1","2022.2.4",1,19,1,2,0.976754964,"Encoding",NA,NA,NA,"40"
"60","P1",1,"RetGoals_V1","2022.2.4",1,20,1,2,1.248220421,"Encoding",NA,NA,NA,"40"
"61","P1",1,"RetGoals_V1","2022.2.4",1,21,1,4,1.096501254,"Encoding",NA,NA,NA,"40"
"62","P1",1,"RetGoals_V1","2022.2.4",1,22,1,3,0.881245978,"Encoding",NA,NA,NA,"40"
"63","P1",1,"RetGoals_V1","2022.2.4",1,23,1,2,0.803477602,"Encoding",NA,NA,NA,"40"
"64","P1",1,"RetGoals_V1","2022.2.4",1,24,1,2,0.857470968,"Encoding",NA,NA,NA,"40"
"65","P1",1,"RetGoals_V1","2022.2.4",1,25,1,2,0.578662272,"Encoding",NA,NA,NA,"40"
"66","P1",1,"RetGoals_V1","2022.2.4",1,26,1,2,1.3300519,"Encoding",NA,NA,NA,"40"
"67","P1",1,"RetGoals_V1","2022.2.4",1,27,1,4,1.19624776,"Encoding",NA,NA,NA,"40"
"68","P1",1,"RetGoals_V1","2022.2.4",1,28,1,4,1.362285204,"Encoding",NA,NA,NA,"40"
"69","P1",1,"RetGoals_V1","2022.2.4",1,29,1,4,1.195265695,"Encoding",NA,NA,NA,"40"
"70","P1",1,"RetGoals_V1","2022.2.4",1,30,0,NA,NA,"Encoding",NA,NA,NA,"40"
"71","P1",1,"RetGoals_V1","2022.2.4",1,31,1,4,0.883864913,"Encoding",NA,NA,NA,"40"
"72","P1",1,"RetGoals_V1","2022.2.4",1,32,1,4,0.797009846,"Encoding",NA,NA,NA,"40"
"73","P1",1,"RetGoals_V1","2022.2.4",1,33,0,NA,NA,"Encoding",NA,NA,NA,"40"
"74","P1",1,"RetGoals_V1","2022.2.4",1,34,1,3,1.02836503,"Encoding",NA,NA,NA,"40"
"75","P1",1,"RetGoals_V1","2022.2.4",1,35,1,3,0.572870009,"Encoding",NA,NA,NA,"40"
"76","P1",1,"RetGoals_V1","2022.2.4",1,36,1,4,0.990277106,"Encoding",NA,NA,NA,"40"
"77","P1",1,"RetGoals_V1","2022.2.4",1,37,1,3,0.829647347,"Encoding",NA,NA,NA,"40"
"78","P1",1,"RetGoals_V1","2022.2.4",1,38,1,2,0.541549904,"Encoding",NA,NA,NA,"40"
"79","P1",1,"RetGoals_V1","2022.2.4",1,39,1,4,0.540977089,"Encoding",NA,NA,NA,"40"
"80","P1",1,"RetGoals_V1","2022.2.4",1,40,1,2,0.847511949,"Encoding",NA,NA,NA,"40"
"81","P1",1,"RetGoals_V1","2022.2.4",1,1,0,NA,NA,"Internal",0,NA,0,"40"
"82","P1",1,"RetGoals_V1","2022.2.4",1,2,0,4,1.279896042,"Internal",0,NA,0,"40"
"83","P1",1,"RetGoals_V1","2022.2.4",1,3,1,2,0.175933876,"Internal",6,NA,0,"40"
"84","P1",1,"RetGoals_V1","2022.2.4",1,4,0,NA,NA,"Internal",2,NA,0,"40"
"85","P1",1,"RetGoals_V1","2022.2.4",1,5,1,2,0.76697649,"Internal",4,NA,0,"40"
"86","P1",1,"RetGoals_V1","2022.2.4",1,6,0,2,1.085322035,"Internal",1,NA,0,"40"
"87","P1",1,"RetGoals_V1","2022.2.4",1,7,0,2,0.669167978,"Internal",0,NA,0,"40"
"88","P1",1,"RetGoals_V1","2022.2.4",1,8,1,2,0.391604617,"Internal",6,NA,0,"40"
"89","P1",1,"RetGoals_V1","2022.2.4",1,9,1,4,0.916750915,"Internal",2,NA,0,"40"
"90","P1",1,"RetGoals_V1","2022.2.4",1,10,1,4,0.74077774,"Internal",5,NA,0,"40"
"91","P1",1,"RetGoals_V1","2022.2.4",1,11,0,2,0.716681452,"Internal",12,NA,1,"40"
"92","P1",1,"RetGoals_V1","2022.2.4",1,12,0,NA,NA,"Internal",2,NA,0,"40"
"93","P1",1,"RetGoals_V1","2022.2.4",1,13,0,NA,NA,"Internal",0,NA,0,"40"
"94","P1",1,"RetGoals_V1","2022.2.4",1,14,1,4,1.052736891,"Internal",2,NA,0,"40"
"95","P1",1,"RetGoals_V1","2022.2.4",1,15,0,2,1.295160979,"Internal",0,NA,0,"40"
"96","P1",1,"RetGoals_V1","2022.2.4",1,16,0,NA,NA,"Internal",0,NA,0,"40"
"97","P1",1,"RetGoals_V1","2022.2.4",1,17,0,4,0.678995137,"Internal",0,NA,0,"40"
"98","P1",1,"RetGoals_V1","2022.2.4",1,18,0,1,1.297118712,"Internal",1,NA,2,"40"
"99","P1",1,"RetGoals_V1","2022.2.4",1,19,1,2,1.377176835,"Internal",4,NA,0,"40"
"100","P1",1,"RetGoals_V1","2022.2.4",1,20,0,NA,NA,"Internal",9,NA,0,"40"
"101","P1",1,"RetGoals_V1","2022.2.4",1,21,1,4,0.158636559,"Internal",1,NA,0,"40"
"102","P1",1,"RetGoals_V1","2022.2.4",1,22,0,4,1.150322786,"Internal",0,NA,0,"40"
"103","P1",1,"RetGoals_V1","2022.2.4",1,23,0,NA,NA,"Internal",0,NA,0,"40"
"104","P1",1,"RetGoals_V1","2022.2.4",1,24,0,NA,NA,"Internal",0,NA,0,"40"
"105","P1",1,"RetGoals_V1","2022.2.4",1,25,1,2,0.892109845,"Internal",9,NA,0,"40"
"106","P1",1,"RetGoals_V1","2022.2.4",1,26,1,4,0.332900321,"Internal",6,NA,0,"40"
"107","P1",1,"RetGoals_V1","2022.2.4",1,27,0,2,0.292840442,"Internal",1,NA,0,"40"
"108","P1",1,"RetGoals_V1","2022.2.4",1,28,1,4,0.469920801,"Internal",13,NA,1,"40"
"109","P1",1,"RetGoals_V1","2022.2.4",1,29,0,4,0.824121638,"Internal",1,NA,0,"40"
"110","P1",1,"RetGoals_V1","2022.2.4",1,30,0,NA,NA,"Internal",0,NA,0,"40"
"111","P1",1,"RetGoals_V1","2022.2.4",1,31,0,4,1.156480734,"Internal",2,NA,0,"40"
"112","P1",1,"RetGoals_V1","2022.2.4",1,32,0,2,0.585420861,"Internal",0,NA,0,"40"
"113","P1",1,"RetGoals_V1","2022.2.4",1,33,0,4,1.189917277,"Internal",0,NA,0,"40"
"114","P1",1,"RetGoals_V1","2022.2.4",1,34,0,NA,NA,"Internal",3,NA,1,"40"
"115","P1",1,"RetGoals_V1","2022.2.4",1,35,0,4,0.427405916,"Internal",0,NA,0,"40"
"116","P1",1,"RetGoals_V1","2022.2.4",1,36,1,4,0.159291549,"Internal",1,NA,0,"40"
"117","P1",1,"RetGoals_V1","2022.2.4",1,37,0,NA,NA,"Internal",0,NA,0,"40"
"118","P1",1,"RetGoals_V1","2022.2.4",1,38,0,NA,NA,"Internal",0,NA,0,"40"
"119","P1",1,"RetGoals_V1","2022.2.4",1,39,0,NA,NA,"Internal",1,NA,0,"40"
"120","P1",1,"RetGoals_V1","2022.2.4",1,40,1,3,1.374652016,"Internal",0,NA,0,"40"
"121","P1",1,"RetGoals_V1","2022.2.4",1,1,0,NA,NA,"Retrieval",NA,NA,NA,"40"
"122","P1",1,"RetGoals_V1","2022.2.4",1,2,0,NA,NA,"Retrieval",NA,NA,NA,"40"
"123","P1",1,"RetGoals_V1","2022.2.4",1,3,0,4,1.276673373,"Retrieval",NA,NA,NA,"40"
"124","P1",1,"RetGoals_V1","2022.2.4",1,4,0,1,1.07730584,"Retrieval",NA,NA,NA,"40"
"125","P1",1,"RetGoals_V1","2022.2.4",1,5,0,NA,NA,"Retrieval",NA,NA,NA,"40"
"126","P1",1,"RetGoals_V1","2022.2.4",1,6,0,3,0.709930603,"Retrieval",NA,NA,NA,"40"
"127","P1",1,"RetGoals_V1","2022.2.4",1,7,0,1,1.206655561,"Retrieval",NA,NA,NA,"40"
"128","P1",1,"RetGoals_V1","2022.2.4",1,8,0,1,0.84235245,"Retrieval",NA,NA,NA,"40"
"129","P1",1,"RetGoals_V1","2022.2.4",1,9,0,3,0.581902384,"Retrieval",NA,NA,NA,"40"
"130","P1",1,"RetGoals_V1","2022.2.4",1,10,1,4,1.301065663,"Retrieval",NA,NA,NA,"40"
"131","P1",1,"RetGoals_V1","2022.2.4",1,11,0,2,0.907463461,"Retrieval",NA,NA,NA,"40"
"132","P1",1,"RetGoals_V1","2022.2.4",1,12,1,4,1.035710184,"Retrieval",NA,NA,NA,"40"
"133","P1",1,"RetGoals_V1","2022.2.4",1,13,0,2,0.574129244,"Retrieval",NA,NA,NA,"40"
"134","P1",1,"RetGoals_V1","2022.2.4",1,14,0,2,0.725254577,"Retrieval",NA,NA,NA,"40"
"135","P1",1,"RetGoals_V1","2022.2.4",1,15,0,1,1.003738584,"Retrieval",NA,NA,NA,"40"
"136","P1",1,"RetGoals_V1","2022.2.4",1,16,0,1,0.856315292,"Retrieval",NA,NA,NA,"40"
"137","P1",1,"RetGoals_V1","2022.2.4",1,17,0,4,1.282485054,"Retrieval",NA,NA,NA,"40"
"138","P1",1,"RetGoals_V1","2022.2.4",1,18,0,2,1.427354519,"Retrieval",NA,NA,NA,"40"
"139","P1",1,"RetGoals_V1","2022.2.4",1,19,0,1,0.821482161,"Retrieval",NA,NA,NA,"40"
"140","P1",1,"RetGoals_V1","2022.2.4",1,20,0,1,0.770096153,"Retrieval",NA,NA,NA,"40"
"141","P1",1,"RetGoals_V1","2022.2.4",1,21,1,4,0.951652601,"Retrieval",NA,NA,NA,"40"
"142","P1",1,"RetGoals_V1","2022.2.4",1,22,0,3,1.021447841,"Retrieval",NA,NA,NA,"40"
"143","P1",1,"RetGoals_V1","2022.2.4",1,23,0,3,0.87280085,"Retrieval",NA,NA,NA,"40"
"144","P1",1,"RetGoals_V1","2022.2.4",1,24,0,2,1.07398708,"Retrieval",NA,NA,NA,"40"
"145","P1",1,"RetGoals_V1","2022.2.4",1,25,0,1,0.476276729,"Retrieval",NA,NA,NA,"40"
"146","P1",1,"RetGoals_V1","2022.2.4",1,26,0,4,1.405516036,"Retrieval",NA,NA,NA,"40"
"147","P1",1,"RetGoals_V1","2022.2.4",1,27,0,1,1.169695321,"Retrieval",NA,NA,NA,"40"
"148","P1",1,"RetGoals_V1","2022.2.4",1,28,0,3,0.751189486,"Retrieval",NA,NA,NA,"40"
"149","P1",1,"RetGoals_V1","2022.2.4",1,29,1,4,1.277474647,"Retrieval",NA,NA,NA,"40"
"150","P1",1,"RetGoals_V1","2022.2.4",1,30,0,2,0.989603107,"Retrieval",NA,NA,NA,"40"
"151","P1",1,"RetGoals_V1","2022.2.4",1,31,1,3,0.755430935,"Retrieval",NA,NA,NA,"40"
"152","P1",1,"RetGoals_V1","2022.2.4",1,32,0,1,1.186425171,"Retrieval",NA,NA,NA,"40"
"153","P1",1,"RetGoals_V1","2022.2.4",1,33,0,2,1.110295084,"Retrieval",NA,NA,NA,"40"
"154","P1",1,"RetGoals_V1","2022.2.4",1,34,0,1,1.269841534,"Retrieval",NA,NA,NA,"40"
"155","P1",1,"RetGoals_V1","2022.2.4",1,35,0,1,1.038334365,"Retrieval",NA,NA,NA,"40"
"156","P1",1,"RetGoals_V1","2022.2.4",1,36,0,2,0.793140194,"Retrieval",NA,NA,NA,"40"
"157","P1",1,"RetGoals_V1","2022.2.4",1,37,0,3,0.862640876,"Retrieval",NA,NA,NA,"40"
"158","P1",1,"RetGoals_V1","2022.2.4",1,38,0,1,1.111880979,"Retrieval",NA,NA,NA,"40"
"159","P1",1,"RetGoals_V1","2022.2.4",1,39,0,NA,NA,"Retrieval",NA,NA,NA,"40"
"160","P1",1,"RetGoals_V1","2022.2.4",1,40,0,2,1.288771595,"Retrieval",NA,NA,NA,"40"
"161","P1",1,"RetGoals_V1","2022.2.4",2,1,1,3,1.161588788,"External",0,7,NA,"40"
"162","P1",1,"RetGoals_V1","2022.2.4",2,2,0,2,1.095021801,"External",1,7,NA,"40"
"163","P1",1,"RetGoals_V1","2022.2.4",2,3,0,4,0.864246063,"External",1,7,NA,"40"
"164","P1",1,"RetGoals_V1","2022.2.4",2,4,1,4,1.369674654,"External",1,6,NA,"40"
"165","P1",1,"RetGoals_V1","2022.2.4",2,5,1,3,1.119595628,"External",0,6,NA,"40"
"166","P1",1,"RetGoals_V1","2022.2.4",2,6,0,NA,NA,"External",1,6,NA,"40"
"167","P1",1,"RetGoals_V1","2022.2.4",2,7,0,4,0.919053832,"External",0,6,NA,"40"
"168","P1",1,"RetGoals_V1","2022.2.4",2,8,0,4,1.093652457,"External",0,7,NA,"40"
"169","P1",1,"RetGoals_V1","2022.2.4",2,9,1,2,1.182200384,"External",1,7,NA,"40"
"170","P1",1,"RetGoals_V1","2022.2.4",2,10,1,4,0.658830178,"External",1,6,NA,"40"
"171","P1",1,"RetGoals_V1","2022.2.4",2,11,1,4,0.397469835,"External",1,7,NA,"40"
"172","P1",1,"RetGoals_V1","2022.2.4",2,12,0,3,1.259157216,"External",1,7,NA,"40"
"173","P1",1,"RetGoals_V1","2022.2.4",2,13,1,4,0.733506016,"External",2,8,NA,"40"
"174","P1",1,"RetGoals_V1","2022.2.4",2,14,1,3,1.419951151,"External",0,6,NA,"40"
"175","P1",1,"RetGoals_V1","2022.2.4",2,15,1,3,0.718862346,"External",0,5,NA,"40"
"176","P1",1,"RetGoals_V1","2022.2.4",2,16,0,NA,NA,"External",0,8,NA,"40"
"177","P1",1,"RetGoals_V1","2022.2.4",2,17,0,NA,NA,"External",1,8,NA,"40"
"178","P1",1,"RetGoals_V1","2022.2.4",2,18,1,2,0.823030362,"External",2,7,NA,"40"
"179","P1",1,"RetGoals_V1","2022.2.4",2,19,1,2,0.754139832,"External",1,6,NA,"40"
"180","P1",1,"RetGoals_V1","2022.2.4",2,20,1,2,0.912864866,"External",2,7,NA,"40"
"181","P1",1,"RetGoals_V1","2022.2.4",2,21,0,3,1.097858793,"External",1,8,NA,"40"
"182","P1",1,"RetGoals_V1","2022.2.4",2,22,0,2,1.06620137,"External",0,7,NA,"40"
"183","P1",1,"RetGoals_V1","2022.2.4",2,23,0,4,0.875474656,"External",2,8,NA,"40"
"184","P1",1,"RetGoals_V1","2022.2.4",2,24,1,4,0.893259589,"External",2,8,NA,"40"
"185","P1",1,"RetGoals_V1","2022.2.4",2,25,0,4,1.214616765,"External",0,8,NA,"40"
"186","P1",1,"RetGoals_V1","2022.2.4",2,26,1,4,0.6669438,"External",1,8,NA,"40"
"187","P1",1,"RetGoals_V1","2022.2.4",2,27,1,3,0.78091952,"External",0,5,NA,"40"
"188","P1",1,"RetGoals_V1","2022.2.4",2,28,0,3,0.808430176,"External",1,6,NA,"40"
"189","P1",1,"RetGoals_V1","2022.2.4",2,29,1,2,0.72529514,"External",2,7,NA,"40"
"190","P1",1,"RetGoals_V1","2022.2.4",2,30,0,3,1.036945521,"External",1,8,NA,"40"
"191","P1",1,"RetGoals_V1","2022.2.4",2,31,1,4,0.695575466,"External",2,7,NA,"40"
"192","P1",1,"RetGoals_V1","2022.2.4",2,32,0,NA,NA,"External",0,6,NA,"40"
"193","P1",1,"RetGoals_V1","2022.2.4",2,33,0,4,1.273165776,"External",1,7,NA,"40"
"194","P1",1,"RetGoals_V1","2022.2.4",2,34,1,2,0.475075055,"External",2,7,NA,"40"
"195","P1",1,"RetGoals_V1","2022.2.4",2,35,1,4,0.75579661,"External",2,8,NA,"40"
"196","P1",1,"RetGoals_V1","2022.2.4",2,36,0,2,0.689450772,"External",0,7,NA,"40"
"197","P1",1,"RetGoals_V1","2022.2.4",2,37,0,3,1.299298388,"External",2,7,NA,"40"
"198","P1",1,"RetGoals_V1","2022.2.4",2,38,0,4,1.21885272,"External",0,6,NA,"40"
"199","P1",1,"RetGoals_V1","2022.2.4",2,39,0,2,0.767133237,"External",0,8,NA,"40"
"200","P1",1,"RetGoals_V1","2022.2.4",2,40,0,3,1.108903349,"External",2,7,NA,"40"
"201","P1",1,"RetGoals_V1","2022.2.4",2,1,1,4,0.141007128,"Encoding",NA,NA,NA,"40"
"202","P1",1,"RetGoals_V1","2022.2.4",2,2,1,2,0.660776858,"Encoding",NA,NA,NA,"40"
"203","P1",1,"RetGoals_V1","2022.2.4",2,3,0,4,1.228666704,"Encoding",NA,NA,NA,"40"
"204","P1",1,"RetGoals_V1","2022.2.4",2,4,0,NA,NA,"Encoding",NA,NA,NA,"40"
"205","P1",1,"RetGoals_V1","2022.2.4",2,5,1,4,1.189885724,"Encoding",NA,NA,NA,"40"
"206","P1",1,"RetGoals_V1","2022.2.4",2,6,0,NA,NA,"Encoding",NA,NA,NA,"40"
"207","P1",1,"RetGoals_V1","2022.2.4",2,7,1,3,1.038089167,"Encoding",NA,NA,NA,"40"
"208","P1",1,"RetGoals_V1","2022.2.4",2,8,1,4,0.967207883,"Encoding",NA,NA,NA,"40"
"209","P1",1,"RetGoals_V1","2022.2.4",2,9,1,2,1.079126052,"Encoding",NA,NA,NA,"40"
"210","P1",1,"RetGoals_V1","2022.2.4",2,10,1,3,1.200645385,"Encoding",NA,NA,NA,"40"
"211","P1",1,"RetGoals_V1","2022.2.4",2,11,1,2,1.102563494,"Encoding",NA,NA,NA,"40"
"212","P1",1,"RetGoals_V1","2022.2.4",2,12,1,4,1.048142924,"Encoding",NA,NA,NA,"40"
"213","P1",1,"RetGoals_V1","2022.2.4",2,13,1,2,1.327421354,"Encoding",NA,NA,NA,"40"
"214","P1",1,"RetGoals_V1","2022.2.4",2,14,1,2,0.911564839,"Encoding",NA,NA,NA,"40"
"215","P1",1,"RetGoals_V1","2022.2.4",2,15,1,3,1.144132322,"Encoding",NA,NA,NA,"40"
"216","P1",1,"RetGoals_V1","2022.2.4",2,16,0,4,0.96107274,"Encoding",NA,NA,NA,"40"
"217","P1",1,"RetGoals_V1","2022.2.4",2,17,1,4,1.282296598,"Encoding",NA,NA,NA,"40"
"218","P1",1,"RetGoals_V1","2022.2.4",2,18,1,4,0.89733034,"Encoding",NA,NA,NA,"40"
"219","P1",1,"RetGoals_V1","2022.2.4",2,19,1,4,1.050540421,"Encoding",NA,NA,NA,"40"
"220","P1",1,"RetGoals_V1","2022.2.4",2,20,1,2,0.810163089,"Encoding",NA,NA,NA,"40"
"221","P1",1,"RetGoals_V1","2022.2.4",2,21,1,3,1.282446456,"Encoding",NA,NA,NA,"40"
"222","P1",1,"RetGoals_V1","2022.2.4",2,22,1,3,0.690915053,"Encoding",NA,NA,NA,"40"
"223","P1",1,"RetGoals_V1","2022.2.4",2,23,1,2,0.843265393,"Encoding",NA,NA,NA,"40"
"224","P1",1,"RetGoals_V1","2022.2.4",2,24,1,2,0.611379261,"Encoding",NA,NA,NA,"40"
"225","P1",1,"RetGoals_V1","2022.2.4",2,25,1,2,1.331037138,"Encoding",NA,NA,NA,"40"
"226","P1",1,"RetGoals_V1","2022.2.4",2,26,1,4,1.075542463,"Encoding",NA,NA,NA,"40"
"227","P1",1,"RetGoals_V1","2022.2.4",2,27,1,3,0.812338835,"Encoding",NA,NA,NA,"40"
"228","P1",1,"RetGoals_V1","2022.2.4",2,28,1,2,0.718138137,"Encoding",NA,NA,NA,"40"
"229","P1",1,"RetGoals_V1","2022.2.4",2,29,1,4,0.980699465,"Encoding",NA,NA,NA,"40"
"230","P1",1,"RetGoals_V1","2022.2.4",2,30,1,2,0.852215823,"Encoding",NA,NA,NA,"40"
"231","P1",1,"RetGoals_V1","2022.2.4",2,31,1,3,0.772530277,"Encoding",NA,NA,NA,"40"
"232","P1",1,"RetGoals_V1","2022.2.4",2,32,1,2,0.965441848,"Encoding",NA,NA,NA,"40"
"233","P1",1,"RetGoals_V1","2022.2.4",2,33,1,2,0.662568687,"Encoding",NA,NA,NA,"40"
"234","P1",1,"RetGoals_V1","2022.2.4",2,34,1,2,0.8382497,"Encoding",NA,NA,NA,"40"
"235","P1",1,"RetGoals_V1","2022.2.4",2,35,1,2,1.142271735,"Encoding",NA,NA,NA,"40"
"236","P1",1,"RetGoals_V1","2022.2.4",2,36,1,2,0.486713726,"Encoding",NA,NA,NA,"40"
"237","P1",1,"RetGoals_V1","2022.2.4",2,37,1,2,0.671030616,"Encoding",NA,NA,NA,"40"
"238","P1",1,"RetGoals_V1","2022.2.4",2,38,1,3,0.846914617,"Encoding",NA,NA,NA,"40"
"239","P1",1,"RetGoals_V1","2022.2.4",2,39,1,4,0.983765711,"Encoding",NA,NA,NA,"40"
"240","P1",1,"RetGoals_V1","2022.2.4",2,40,1,4,0.944457842,"Encoding",NA,NA,NA,"40"
"241","P1",1,"RetGoals_V1","2022.2.4",2,1,0,2,0.664392359,"Internal",1,NA,0,"40"
"242","P1",1,"RetGoals_V1","2022.2.4",2,2,1,4,0.82663712,"Internal",5,NA,0,"40"
"243","P1",1,"RetGoals_V1","2022.2.4",2,3,0,NA,NA,"Internal",0,NA,0,"40"
"244","P1",1,"RetGoals_V1","2022.2.4",2,4,0,4,0.549566913,"Internal",0,NA,0,"40"
"245","P1",1,"RetGoals_V1","2022.2.4",2,5,1,2,1.325811109,"Internal",1,NA,0,"40"
"246","P1",1,"RetGoals_V1","2022.2.4",2,6,0,3,1.0128303,"Internal",2,NA,0,"40"
"247","P1",1,"RetGoals_V1","2022.2.4",2,7,0,NA,NA,"Internal",8,NA,1,"40"
"248","P1",1,"RetGoals_V1","2022.2.4",2,8,0,NA,NA,"Internal",1,NA,0,"40"
"249","P1",1,"RetGoals_V1","2022.2.4",2,9,0,4,0.736985925,"Internal",0,NA,0,"40"
"250","P1",1,"RetGoals_V1","2022.2.4",2,10,0,NA,NA,"Internal",2,NA,0,"40"
"251","P1",1,"RetGoals_V1","2022.2.4",2,11,1,2,0.952598207,"Internal",15,NA,1,"40"
"252","P1",1,"RetGoals_V1","2022.2.4",2,12,0,2,1.061530638,"Internal",1,NA,0,"40"
"253","P1",1,"RetGoals_V1","2022.2.4",2,13,0,3,0.887049605,"Internal",4,NA,0,"40"
"254","P1",1,"RetGoals_V1","2022.2.4",2,14,0,NA,NA,"Internal",7,NA,0,"40"
"255","P1",1,"RetGoals_V1","2022.2.4",2,15,0,NA,NA,"Internal",0,NA,2,"40"
"256","P1",1,"RetGoals_V1","2022.2.4",2,16,0,3,1.07312409,"Internal",2,NA,2,"40"
"257","P1",1,"RetGoals_V1","2022.2.4",2,17,0,NA,NA,"Internal",1,NA,0,"40"
"258","P1",1,"RetGoals_V1","2022.2.4",2,18,1,4,0.946168463,"Internal",12,NA,1,"40"
"259","P1",1,"RetGoals_V1","2022.2.4",2,19,0,NA,NA,"Internal",1,NA,0,"40"
"260","P1",1,"RetGoals_V1","2022.2.4",2,20,0,NA,NA,"Internal",3,NA,0,"40"
"261","P1",1,"RetGoals_V1","2022.2.4",2,21,0,1,1.338431647,"Internal",3,NA,0,"40"
"262","P1",1,"RetGoals_V1","2022.2.4",2,22,0,NA,NA,"Internal",7,NA,1,"40"
"263","P1",1,"RetGoals_V1","2022.2.4",2,23,0,NA,NA,"Internal",2,NA,0,"40"
"264","P1",1,"RetGoals_V1","2022.2.4",2,24,1,2,0.959119784,"Internal",17,NA,1,"40"
"265","P1",1,"RetGoals_V1","2022.2.4",2,25,0,2,0.965602927,"Internal",0,NA,0,"40"
"266","P1",1,"RetGoals_V1","2022.2.4",2,26,0,4,0.964633382,"Internal",0,NA,0,"40"
"267","P1",1,"RetGoals_V1","2022.2.4",2,27,0,NA,NA,"Internal",0,NA,0,"40"
"268","P1",1,"RetGoals_V1","2022.2.4",2,28,0,NA,NA,"Internal",9,NA,1,"40"
"269","P1",1,"RetGoals_V1","2022.2.4",2,29,0,2,1.131415803,"Internal",0,NA,0,"40"
"270","P1",1,"RetGoals_V1","2022.2.4",2,30,1,4,0.745010806,"Internal",6,NA,0,"40"
"271","P1",1,"RetGoals_V1","2022.2.4",2,31,1,3,1.217702894,"Internal",0,NA,0,"40"
"272","P1",1,"RetGoals_V1","2022.2.4",2,32,0,NA,NA,"Internal",2,NA,0,"40"
"273","P1",1,"RetGoals_V1","2022.2.4",2,33,0,NA,NA,"Internal",1,NA,0,"40"
"274","P1",1,"RetGoals_V1","2022.2.4",2,34,0,2,0.852227693,"Internal",0,NA,0,"40"
"275","P1",1,"RetGoals_V1","2022.2.4",2,35,0,NA,NA,"Internal",4,NA,0,"40"
"276","P1",1,"RetGoals_V1","2022.2.4",2,36,1,3,0.990952168,"Internal",0,NA,0,"40"
"277","P1",1,"RetGoals_V1","2022.2.4",2,37,0,NA,NA,"Internal",8,NA,1,"40"
"278","P1",1,"RetGoals_V1","2022.2.4",2,38,0,2,1.323566159,"Internal",0,NA,0,"40"
"279","P1",1,"RetGoals_V1","2022.2.4",2,39,0,NA,NA,"Internal",2,NA,0,"40"
"280","P1",1,"RetGoals_V1","2022.2.4",2,40,0,NA,NA,"Internal",1,NA,0,"40"
"281","P1",1,"RetGoals_V1","2022.2.4",2,1,0,NA,NA,"Retrieval",NA,NA,NA,"40"
"282","P1",1,"RetGoals_V1","2022.2.4",2,2,1,4,0.517262262,"Retrieval",NA,NA,NA,"40"
"283","P1",1,"RetGoals_V1","2022.2.4",2,3,1,2,0.555883008,"Retrieval",NA,NA,NA,"40"
"284","P1",1,"RetGoals_V1","2022.2.4",2,4,0,1,0.54719642,"Retrieval",NA,NA,NA,"40"
"285","P1",1,"RetGoals_V1","2022.2.4",2,5,1,2,0.435102631,"Retrieval",NA,NA,NA,"40"
"286","P1",1,"RetGoals_V1","2022.2.4",2,6,1,2,0.525275358,"Retrieval",NA,NA,NA,"40"
"287","P1",1,"RetGoals_V1","2022.2.4",2,7,1,4,0.55009459,"Retrieval",NA,NA,NA,"40"
"288","P1",1,"RetGoals_V1","2022.2.4",2,8,0,1,0.691669254,"Retrieval",NA,NA,NA,"40"
"289","P1",1,"RetGoals_V1","2022.2.4",2,9,0,NA,NA,"Retrieval",NA,NA,NA,"40"
"290","P1",1,"RetGoals_V1","2022.2.4",2,10,1,3,0.493340151,"Retrieval",NA,NA,NA,"40"
"291","P1",1,"RetGoals_V1","2022.2.4",2,11,0,1,1.158564407,"Retrieval",NA,NA,NA,"40"
"292","P1",1,"RetGoals_V1","2022.2.4",2,12,0,3,1.364697551,"Retrieval",NA,NA,NA,"40"
"293","P1",1,"RetGoals_V1","2022.2.4",2,13,1,4,0.689554349,"Retrieval",NA,NA,NA,"40"
"294","P1",1,"RetGoals_V1","2022.2.4",2,14,1,2,0.700412549,"Retrieval",NA,NA,NA,"40"
"295","P1",1,"RetGoals_V1","2022.2.4",2,15,0,4,0.916597741,"Retrieval",NA,NA,NA,"40"
"296","P1",1,"RetGoals_V1","2022.2.4",2,16,0,1,0.645749468,"Retrieval",NA,NA,NA,"40"
"297","P1",1,"RetGoals_V1","2022.2.4",2,17,1,4,0.511154493,"Retrieval",NA,NA,NA,"40"
"298","P1",1,"RetGoals_V1","2022.2.4",2,18,0,1,0.615854373,"Retrieval",NA,NA,NA,"40"
"299","P1",1,"RetGoals_V1","2022.2.4",2,19,0,3,0.619759166,"Retrieval",NA,NA,NA,"40"
"300","P1",1,"RetGoals_V1","2022.2.4",2,20,1,3,1.072728153,"Retrieval",NA,NA,NA,"40"
"301","P1",1,"RetGoals_V1","2022.2.4",2,21,0,1,0.881636546,"Retrieval",NA,NA,NA,"40"
"302","P1",1,"RetGoals_V1","2022.2.4",2,22,1,4,0.516569233,"Retrieval",NA,NA,NA,"40"
"303","P1",1,"RetGoals_V1","2022.2.4",2,23,0,2,0.403860569,"Retrieval",NA,NA,NA,"40"
"304","P1",1,"RetGoals_V1","2022.2.4",2,24,0,4,1.455676247,"Retrieval",NA,NA,NA,"40"
"305","P1",1,"RetGoals_V1","2022.2.4",2,25,1,2,0.322015465,"Retrieval",NA,NA,NA,"40"
"306","P1",1,"RetGoals_V1","2022.2.4",2,26,0,3,0.369679526,"Retrieval",NA,NA,NA,"40"
"307","P1",1,"RetGoals_V1","2022.2.4",2,27,0,1,0.423080803,"Retrieval",NA,NA,NA,"40"
"308","P1",1,"RetGoals_V1","2022.2.4",2,28,0,1,0.611391415,"Retrieval",NA,NA,NA,"40"
"309","P1",1,"RetGoals_V1","2022.2.4",2,29,0,1,0.83363002,"Retrieval",NA,NA,NA,"40"
"310","P1",1,"RetGoals_V1","2022.2.4",2,30,1,3,0.485463449,"Retrieval",NA,NA,NA,"40"
"311","P1",1,"RetGoals_V1","2022.2.4",2,31,1,4,0.341421684,"Retrieval",NA,NA,NA,"40"
"312","P1",1,"RetGoals_V1","2022.2.4",2,32,1,3,0.501875768,"Retrieval",NA,NA,NA,"40"
"313","P1",1,"RetGoals_V1","2022.2.4",2,33,1,2,0.413848843,"Retrieval",NA,NA,NA,"40"
"314","P1",1,"RetGoals_V1","2022.2.4",2,34,0,1,0.921447895,"Retrieval",NA,NA,NA,"40"
"315","P1",1,"RetGoals_V1","2022.2.4",2,35,1,3,0.297565892,"Retrieval",NA,NA,NA,"40"
"316","P1",1,"RetGoals_V1","2022.2.4",2,36,0,1,1.025862196,"Retrieval",NA,NA,NA,"40"
"317","P1",1,"RetGoals_V1","2022.2.4",2,37,0,4,0.438219616,"Retrieval",NA,NA,NA,"40"
"318","P1",1,"RetGoals_V1","2022.2.4",2,38,0,1,0.54590837,"Retrieval",NA,NA,NA,"40"
"319","P1",1,"RetGoals_V1","2022.2.4",2,39,0,2,1.19277645,"Retrieval",NA,NA,NA,"40"
"320","P1",1,"RetGoals_V1","2022.2.4",2,40,1,3,0.460902403,"Retrieval",NA,NA,NA,"40"
"321","P1",1,"RetGoals_V1","2022.2.4",3,1,1,3,0.768766954,"External",0,7,NA,"40"
"322","P1",1,"RetGoals_V1","2022.2.4",3,2,1,4,0.821357271,"External",2,8,NA,"40"
"323","P1",1,"RetGoals_V1","2022.2.4",3,3,0,4,1.056409336,"External",1,8,NA,"40"
"324","P1",1,"RetGoals_V1","2022.2.4",3,4,1,4,0.786806477,"External",2,7,NA,"40"
"325","P1",1,"RetGoals_V1","2022.2.4",3,5,0,3,0.695446466,"External",2,7,NA,"40"
"326","P1",1,"RetGoals_V1","2022.2.4",3,6,1,4,0.761453468,"External",2,8,NA,"40"
"327","P1",1,"RetGoals_V1","2022.2.4",3,7,1,4,0.912982613,"External",2,8,NA,"40"
"328","P1",1,"RetGoals_V1","2022.2.4",3,8,0,2,0.448090858,"External",0,5,NA,"40"
"329","P1",1,"RetGoals_V1","2022.2.4",3,9,0,3,1.235169801,"External",2,7,NA,"40"
"330","P1",1,"RetGoals_V1","2022.2.4",3,10,0,4,1.197834532,"External",0,8,NA,"40"
"331","P1",1,"RetGoals_V1","2022.2.4",3,11,1,4,1.337736988,"External",2,7,NA,"40"
"332","P1",1,"RetGoals_V1","2022.2.4",3,12,1,4,1.26464047,"External",2,7,NA,"40"
"333","P1",1,"RetGoals_V1","2022.2.4",3,13,0,3,1.010340556,"External",1,8,NA,"40"
"334","P1",1,"RetGoals_V1","2022.2.4",3,14,0,4,0.814627725,"External",0,6,NA,"40"
"335","P1",1,"RetGoals_V1","2022.2.4",3,15,0,NA,NA,"External",0,7,NA,"40"
"336","P1",1,"RetGoals_V1","2022.2.4",3,16,0,NA,NA,"External",0,5,NA,"40"
"337","P1",1,"RetGoals_V1","2022.2.4",3,17,1,2,1.067196658,"External",1,6,NA,"40"
"338","P1",1,"RetGoals_V1","2022.2.4",3,18,1,4,0.564439561,"External",1,8,NA,"40"
"339","P1",1,"RetGoals_V1","2022.2.4",3,19,0,NA,NA,"External",0,5,NA,"40"
"340","P1",1,"RetGoals_V1","2022.2.4",3,20,0,NA,NA,"External",0,5,NA,"40"
"341","P1",1,"RetGoals_V1","2022.2.4",3,21,0,NA,NA,"External",0,6,NA,"40"
"342","P1",1,"RetGoals_V1","2022.2.4",3,22,1,2,0.923780388,"External",1,8,NA,"40"
"343","P1",1,"RetGoals_V1","2022.2.4",3,23,0,3,1.386458692,"External",2,7,NA,"40"
"344","P1",1,"RetGoals_V1","2022.2.4",3,24,0,NA,NA,"External",1,6,NA,"40"
"345","P1",1,"RetGoals_V1","2022.2.4",3,25,0,NA,NA,"External",1,6,NA,"40"
"346","P1",1,"RetGoals_V1","2022.2.4",3,26,0,NA,NA,"External",0,7,NA,"40"
"347","P1",1,"RetGoals_V1","2022.2.4",3,27,0,2,1.270913834,"External",2,7,NA,"40"
"348","P1",1,"RetGoals_V1","2022.2.4",3,28,1,4,0.849195428,"External",1,6,NA,"40"
"349","P1",1,"RetGoals_V1","2022.2.4",3,29,0,4,1.122980836,"External",1,8,NA,"40"
"350","P1",1,"RetGoals_V1","2022.2.4",3,30,1,3,1.178220707,"External",0,8,NA,"40"
"351","P1",1,"RetGoals_V1","2022.2.4",3,31,1,4,0.688172981,"External",1,8,NA,"40"
"352","P1",1,"RetGoals_V1","2022.2.4",3,32,0,2,0.714042784,"External",0,8,NA,"40"
"353","P1",1,"RetGoals_V1","2022.2.4",3,33,1,2,0.86545408,"External",2,8,NA,"40"
"354","P1",1,"RetGoals_V1","2022.2.4",3,34,0,NA,NA,"External",0,8,NA,"40"
"355","P1",1,"RetGoals_V1","2022.2.4",3,35,1,4,0.931107942,"External",2,7,NA,"40"
"356","P1",1,"RetGoals_V1","2022.2.4",3,36,1,4,1.138715611,"External",2,8,NA,"40"
"357","P1",1,"RetGoals_V1","2022.2.4",3,37,0,NA,NA,"External",1,6,NA,"40"
"358","P1",1,"RetGoals_V1","2022.2.4",3,38,1,2,0.033908899,"External",2,7,NA,"40"
"359","P1",1,"RetGoals_V1","2022.2.4",3,39,1,2,0.462018744,"External",2,8,NA,"40"
"360","P1",1,"RetGoals_V1","2022.2.4",3,40,1,4,0.735798499,"External",1,8,NA,"40"
"361","P1",1,"RetGoals_V1","2022.2.4",3,1,1,4,1.200600884,"Encoding",NA,NA,NA,"40"
"362","P1",1,"RetGoals_V1","2022.2.4",3,2,1,4,1.03165183,"Encoding",NA,NA,NA,"40"
"363","P1",1,"RetGoals_V1","2022.2.4",3,3,1,3,1.15934846,"Encoding",NA,NA,NA,"40"
"364","P1",1,"RetGoals_V1","2022.2.4",3,4,1,3,0.895895488,"Encoding",NA,NA,NA,"40"
"365","P1",1,"RetGoals_V1","2022.2.4",3,5,1,3,1.209324397,"Encoding",NA,NA,NA,"40"
"366","P1",1,"RetGoals_V1","2022.2.4",3,6,1,4,0.776439849,"Encoding",NA,NA,NA,"40"
"367","P1",1,"RetGoals_V1","2022.2.4",3,7,1,4,0.650318744,"Encoding",NA,NA,NA,"40"
"368","P1",1,"RetGoals_V1","2022.2.4",3,8,1,4,0.872911499,"Encoding",NA,NA,NA,"40"
"369","P1",1,"RetGoals_V1","2022.2.4",3,9,1,2,0.729554211,"Encoding",NA,NA,NA,"40"
"370","P1",1,"RetGoals_V1","2022.2.4",3,10,1,3,0.394176877,"Encoding",NA,NA,NA,"40"
"371","P1",1,"RetGoals_V1","2022.2.4",3,11,1,3,0.785727423,"Encoding",NA,NA,NA,"40"
"372","P1",1,"RetGoals_V1","2022.2.4",3,12,1,4,0.602858705,"Encoding",NA,NA,NA,"40"
"373","P1",1,"RetGoals_V1","2022.2.4",3,13,1,2,0.563954599,"Encoding",NA,NA,NA,"40"
"374","P1",1,"RetGoals_V1","2022.2.4",3,14,1,4,1.227035986,"Encoding",NA,NA,NA,"40"
"375","P1",1,"RetGoals_V1","2022.2.4",3,15,1,2,0.619581452,"Encoding",NA,NA,NA,"40"
"376","P1",1,"RetGoals_V1","2022.2.4",3,16,1,4,0.876137896,"Encoding",NA,NA,NA,"40"
"377","P1",1,"RetGoals_V1","2022.2.4",3,17,1,3,1.259417034,"Encoding",NA,NA,NA,"40"
"378","P1",1,"RetGoals_V1","2022.2.4",3,18,1,3,0.980825554,"Encoding",NA,NA,NA,"40"
"379","P1",1,"RetGoals_V1","2022.2.4",3,19,1,4,0.877276696,"Encoding",NA,NA,NA,"40"
"380","P1",1,"RetGoals_V1","2022.2.4",3,20,1,4,0.773314028,"Encoding",NA,NA,NA,"40"
"381","P1",1,"RetGoals_V1","2022.2.4",3,21,1,4,0.750495673,"Encoding",NA,NA,NA,"40"
"382","P1",1,"RetGoals_V1","2022.2.4",3,22,1,4,0.56487171,"Encoding",NA,NA,NA,"40"
"383","P1",1,"RetGoals_V1","2022.2.4",3,23,1,3,0.918896781,"Encoding",NA,NA,NA,"40"
"384","P1",1,"RetGoals_V1","2022.2.4",3,24,1,4,0.605886292,"Encoding",NA,NA,NA,"40"
"385","P1",1,"RetGoals_V1","2022.2.4",3,25,1,2,0.847371728,"Encoding",NA,NA,NA,"40"
"386","P1",1,"RetGoals_V1","2022.2.4",3,26,1,4,0.661983176,"Encoding",NA,NA,NA,"40"
"387","P1",1,"RetGoals_V1","2022.2.4",3,27,1,4,0.767859906,"Encoding",NA,NA,NA,"40"
"388","P1",1,"RetGoals_V1","2022.2.4",3,28,1,2,0.671196656,"Encoding",NA,NA,NA,"40"
"389","P1",1,"RetGoals_V1","2022.2.4",3,29,1,2,0.881398803,"Encoding",NA,NA,NA,"40"
"390","P1",1,"RetGoals_V1","2022.2.4",3,30,1,4,0.511006841,"Encoding",NA,NA,NA,"40"
"391","P1",1,"RetGoals_V1","2022.2.4",3,31,1,3,0.785603256,"Encoding",NA,NA,NA,"40"
"392","P1",1,"RetGoals_V1","2022.2.4",3,32,1,2,0.985924975,"Encoding",NA,NA,NA,"40"
"393","P1",1,"RetGoals_V1","2022.2.4",3,33,1,4,0.5364907,"Encoding",NA,NA,NA,"40"
"394","P1",1,"RetGoals_V1","2022.2.4",3,34,1,4,0.792468402,"Encoding",NA,NA,NA,"40"
"395","P1",1,"RetGoals_V1","2022.2.4",3,35,1,2,0.745516064,"Encoding",NA,NA,NA,"40"
"396","P1",1,"RetGoals_V1","2022.2.4",3,36,1,3,0.689433348,"Encoding",NA,NA,NA,"40"
"397","P1",1,"RetGoals_V1","2022.2.4",3,37,1,4,0.625373105,"Encoding",NA,NA,NA,"40"
"398","P1",1,"RetGoals_V1","2022.2.4",3,38,1,2,0.78522386,"Encoding",NA,NA,NA,"40"
"399","P1",1,"RetGoals_V1","2022.2.4",3,39,1,4,1.020068099,"Encoding",NA,NA,NA,"40"
"400","P1",1,"RetGoals_V1","2022.2.4",3,40,1,2,0.65259733,"Encoding",NA,NA,NA,"40"
"401","P1",1,"RetGoals_V1","2022.2.4",3,1,0,1,1.115535165,"Internal",1,NA,0,"40"
"402","P1",1,"RetGoals_V1","2022.2.4",3,2,0,NA,NA,"Internal",2,NA,0,"40"
"403","P1",1,"RetGoals_V1","2022.2.4",3,3,0,NA,NA,"Internal",1,NA,0,"40"
"404","P1",1,"RetGoals_V1","2022.2.4",3,4,1,3,1.131298019,"Internal",0,NA,0,"40"
"405","P1",1,"RetGoals_V1","2022.2.4",3,5,0,NA,NA,"Internal",7,NA,1,"40"
"406","P1",1,"RetGoals_V1","2022.2.4",3,6,1,2,0.988231845,"Internal",1,NA,0,"40"
"407","P1",1,"RetGoals_V1","2022.2.4",3,7,0,NA,NA,"Internal",2,NA,0,"40"
"408","P1",1,"RetGoals_V1","2022.2.4",3,8,0,4,0.871027308,"Internal",1,NA,0,"40"
"409","P1",1,"RetGoals_V1","2022.2.4",3,9,0,NA,NA,"Internal",3,NA,0,"40"
"410","P1",1,"RetGoals_V1","2022.2.4",3,10,1,3,1.369860404,"Internal",0,NA,0,"40"
"411","P1",1,"RetGoals_V1","2022.2.4",3,11,1,4,1.325674421,"Internal",2,NA,0,"40"
"412","P1",1,"RetGoals_V1","2022.2.4",3,12,1,2,1.109698997,"Internal",1,NA,0,"40"
"413","P1",1,"RetGoals_V1","2022.2.4",3,13,1,3,1.422134329,"Internal",0,NA,0,"40"
"414","P1",1,"RetGoals_V1","2022.2.4",3,14,0,2,0.40049218,"Internal",1,NA,0,"40"
"415","P1",1,"RetGoals_V1","2022.2.4",3,15,0,NA,NA,"Internal",0,NA,0,"40"
"416","P1",1,"RetGoals_V1","2022.2.4",3,16,1,4,0.876976035,"Internal",1,NA,0,"40"
"417","P1",1,"RetGoals_V1","2022.2.4",3,17,0,NA,NA,"Internal",1,NA,0,"40"
"418","P1",1,"RetGoals_V1","2022.2.4",3,18,0,NA,NA,"Internal",8,NA,1,"40"
"419","P1",1,"RetGoals_V1","2022.2.4",3,19,0,3,1.087516499,"Internal",1,NA,0,"40"
"420","P1",1,"RetGoals_V1","2022.2.4",3,20,0,4,1.319674981,"Internal",1,NA,0,"40"
"421","P1",1,"RetGoals_V1","2022.2.4",3,21,0,2,1.351029557,"Internal",1,NA,0,"40"
"422","P1",1,"RetGoals_V1","2022.2.4",3,22,0,NA,NA,"Internal",0,NA,0,"40"
"423","P1",1,"RetGoals_V1","2022.2.4",3,23,0,NA,NA,"Internal",6,NA,1,"40"
"424","P1",1,"RetGoals_V1","2022.2.4",3,24,0,4,0.74895853,"Internal",0,NA,0,"40"
"425","P1",1,"RetGoals_V1","2022.2.4",3,25,0,NA,NA,"Internal",1,NA,0,"40"
"426","P1",1,"RetGoals_V1","2022.2.4",3,26,1,2,1.325963635,"Internal",2,NA,0,"40"
"427","P1",1,"RetGoals_V1","2022.2.4",3,27,1,2,0.890915723,"Internal",4,NA,0,"40"
"428","P1",1,"RetGoals_V1","2022.2.4",3,28,0,NA,NA,"Internal",9,NA,0,"40"
"429","P1",1,"RetGoals_V1","2022.2.4",3,29,1,2,0.852366988,"Internal",4,NA,0,"40"
"430","P1",1,"RetGoals_V1","2022.2.4",3,30,1,4,0.92695057,"Internal",1,NA,0,"40"
"431","P1",1,"RetGoals_V1","2022.2.4",3,31,0,2,0.878315947,"Internal",0,NA,0,"40"
"432","P1",1,"RetGoals_V1","2022.2.4",3,32,0,NA,NA,"Internal",0,NA,0,"40"
"433","P1",1,"RetGoals_V1","2022.2.4",3,33,0,4,1.438913062,"Internal",0,NA,0,"40"
"434","P1",1,"RetGoals_V1","2022.2.4",3,34,1,4,0.850567411,"Internal",1,NA,0,"40"
"435","P1",1,"RetGoals_V1","2022.2.4",3,35,0,NA,NA,"Internal",2,NA,0,"40"
"436","P1",1,"RetGoals_V1","2022.2.4",3,36,0,NA,NA,"Internal",0,NA,0,"40"
"437","P1",1,"RetGoals_V1","2022.2.4",3,37,0,NA,NA,"Internal",0,NA,0,"40"
"438","P1",1,"RetGoals_V1","2022.2.4",3,38,1,2,0.924485056,"Internal",7,NA,0,"40"
"439","P1",1,"RetGoals_V1","2022.2.4",3,39,0,2,1.300768978,"Internal",0,NA,0,"40"
"440","P1",1,"RetGoals_V1","2022.2.4",3,40,0,NA,NA,"Internal",14,NA,1,"40"
"441","P1",1,"RetGoals_V1","2022.2.4",3,1,0,NA,NA,"Retrieval",NA,NA,NA,"40"
"442","P1",1,"RetGoals_V1","2022.2.4",3,2,0,1,0.812748457,"Retrieval",NA,NA,NA,"40"
"443","P1",1,"RetGoals_V1","2022.2.4",3,3,1,3,0.345408529,"Retrieval",NA,NA,NA,"40"
"444","P1",1,"RetGoals_V1","2022.2.4",3,4,1,2,0.744565965,"Retrieval",NA,NA,NA,"40"
"445","P1",1,"RetGoals_V1","2022.2.4",3,5,0,1,0.519884137,"Retrieval",NA,NA,NA,"40"
"446","P1",1,"RetGoals_V1","2022.2.4",3,6,0,3,0.5683489,"Retrieval",NA,NA,NA,"40"
"447","P1",1,"RetGoals_V1","2022.2.4",3,7,1,4,0.357684965,"Retrieval",NA,NA,NA,"40"
"448","P1",1,"RetGoals_V1","2022.2.4",3,8,1,3,0.508276186,"Retrieval",NA,NA,NA,"40"
"449","P1",1,"RetGoals_V1","2022.2.4",3,9,1,3,0.836923733,"Retrieval",NA,NA,NA,"40"
"450","P1",1,"RetGoals_V1","2022.2.4",3,10,0,4,0.368415415,"Retrieval",NA,NA,NA,"40"
"451","P1",1,"RetGoals_V1","2022.2.4",3,11,1,3,0.653581066,"Retrieval",NA,NA,NA,"40"
"452","P1",1,"RetGoals_V1","2022.2.4",3,12,1,2,1.183586546,"Retrieval",NA,NA,NA,"40"
"453","P1",1,"RetGoals_V1","2022.2.4",3,13,1,2,0.469777085,"Retrieval",NA,NA,NA,"40"
"454","P1",1,"RetGoals_V1","2022.2.4",3,14,1,3,0.543044917,"Retrieval",NA,NA,NA,"40"
"455","P1",1,"RetGoals_V1","2022.2.4",3,15,1,4,0.445856412,"Retrieval",NA,NA,NA,"40"
"456","P1",1,"RetGoals_V1","2022.2.4",3,16,1,3,0.449314455,"Retrieval",NA,NA,NA,"40"
"457","P1",1,"RetGoals_V1","2022.2.4",3,17,0,4,1.116684669,"Retrieval",NA,NA,NA,"40"
"458","P1",1,"RetGoals_V1","2022.2.4",3,18,1,2,0.580739685,"Retrieval",NA,NA,NA,"40"
"459","P1",1,"RetGoals_V1","2022.2.4",3,19,1,3,0.514873118,"Retrieval",NA,NA,NA,"40"
"460","P1",1,"RetGoals_V1","2022.2.4",3,20,1,2,0.48393457,"Retrieval",NA,NA,NA,"40"
"461","P1",1,"RetGoals_V1","2022.2.4",3,21,1,2,0.551351535,"Retrieval",NA,NA,NA,"40"
"462","P1",1,"RetGoals_V1","2022.2.4",3,22,0,3,1.228388629,"Retrieval",NA,NA,NA,"40"
"463","P1",1,"RetGoals_V1","2022.2.4",3,23,1,3,0.695489059,"Retrieval",NA,NA,NA,"40"
"464","P1",1,"RetGoals_V1","2022.2.4",3,24,1,3,0.688364372,"Retrieval",NA,NA,NA,"40"
"465","P1",1,"RetGoals_V1","2022.2.4",3,25,0,4,1.144899246,"Retrieval",NA,NA,NA,"40"
"466","P1",1,"RetGoals_V1","2022.2.4",3,26,0,1,0.81698339,"Retrieval",NA,NA,NA,"40"
"467","P1",1,"RetGoals_V1","2022.2.4",3,27,0,3,1.180870943,"Retrieval",NA,NA,NA,"40"
"468","P1",1,"RetGoals_V1","2022.2.4",3,28,0,4,1.393097479,"Retrieval",NA,NA,NA,"40"
"469","P1",1,"RetGoals_V1","2022.2.4",3,29,1,4,0.909083996,"Retrieval",NA,NA,NA,"40"
"470","P1",1,"RetGoals_V1","2022.2.4",3,30,0,3,0.805077254,"Retrieval",NA,NA,NA,"40"
"471","P1",1,"RetGoals_V1","2022.2.4",3,31,1,3,0.561009194,"Retrieval",NA,NA,NA,"40"
"472","P1",1,"RetGoals_V1","2022.2.4",3,32,0,2,0.927748072,"Retrieval",NA,NA,NA,"40"
"473","P1",1,"RetGoals_V1","2022.2.4",3,33,0,1,0.607510122,"Retrieval",NA,NA,NA,"40"
"474","P1",1,"RetGoals_V1","2022.2.4",3,34,1,2,0.420083318,"Retrieval",NA,NA,NA,"40"
"475","P1",1,"RetGoals_V1","2022.2.4",3,35,1,2,0.385384415,"Retrieval",NA,NA,NA,"40"
"476","P1",1,"RetGoals_V1","2022.2.4",3,36,1,3,0.461089297,"Retrieval",NA,NA,NA,"40"
"477","P1",1,"RetGoals_V1","2022.2.4",3,37,0,4,1.255548807,"Retrieval",NA,NA,NA,"40"
"478","P1",1,"RetGoals_V1","2022.2.4",3,38,1,2,0.689314706,"Retrieval",NA,NA,NA,"40"
"479","P1",1,"RetGoals_V1","2022.2.4",3,39,0,3,0.410759969,"Retrieval",NA,NA,NA,"40"
"480","P1",1,"RetGoals_V1","2022.2.4",3,40,1,2,0.463740647,"Retrieval",NA,NA,NA,"40"
"481","P1",1,"RetGoals_V1","2022.2.4",4,1,0,4,0.602090688,"External",0,7,NA,"40"
"482","P1",1,"RetGoals_V1","2022.2.4",4,2,1,4,0.463092523,"External",1,8,NA,"40"
"483","P1",1,"RetGoals_V1","2022.2.4",4,3,1,4,0.618272042,"External",1,8,NA,"40"
"484","P1",1,"RetGoals_V1","2022.2.4",4,4,1,3,0.868688727,"External",0,7,NA,"40"
"485","P1",1,"RetGoals_V1","2022.2.4",4,5,1,3,0.847545905,"External",0,5,NA,"40"
"486","P1",1,"RetGoals_V1","2022.2.4",4,6,1,4,0.633722011,"External",2,8,NA,"40"
"487","P1",1,"RetGoals_V1","2022.2.4",4,7,1,4,0.844935616,"External",2,8,NA,"40"
"488","P1",1,"RetGoals_V1","2022.2.4",4,8,0,4,1.144114696,"External",0,6,NA,"40"
"489","P1",1,"RetGoals_V1","2022.2.4",4,9,0,2,0.957894154,"External",1,7,NA,"40"
"490","P1",1,"RetGoals_V1","2022.2.4",4,10,0,2,1.228446185,"External",0,7,NA,"40"
"491","P1",1,"RetGoals_V1","2022.2.4",4,11,0,3,1.176870987,"External",1,7,NA,"40"
"492","P1",1,"RetGoals_V1","2022.2.4",4,12,1,2,0.676923665,"External",2,7,NA,"40"
"493","P1",1,"RetGoals_V1","2022.2.4",4,13,1,4,0.670262524,"External",1,6,NA,"40"
"494","P1",1,"RetGoals_V1","2022.2.4",4,14,1,4,0.904652264,"External",1,7,NA,"40"
"495","P1",1,"RetGoals_V1","2022.2.4",4,15,0,2,1.096391463,"External",1,7,NA,"40"
"496","P1",1,"RetGoals_V1","2022.2.4",4,16,0,4,1.424930206,"External",0,5,NA,"40"
"497","P1",1,"RetGoals_V1","2022.2.4",4,17,1,4,0.963645709,"External",1,7,NA,"40"
"498","P1",1,"RetGoals_V1","2022.2.4",4,18,0,4,1.067355676,"External",0,8,NA,"40"
"499","P1",1,"RetGoals_V1","2022.2.4",4,19,1,3,0.971726991,"External",0,6,NA,"40"
"500","P1",1,"RetGoals_V1","2022.2.4",4,20,1,3,0.825846966,"External",0,5,NA,"40"
"501","P1",1,"RetGoals_V1","2022.2.4",4,21,0,2,1.221551311,"External",0,6,NA,"40"
"502","P1",1,"RetGoals_V1","2022.2.4",4,22,1,4,0.944290489,"External",2,7,NA,"40"
"503","P1",1,"RetGoals_V1","2022.2.4",4,23,1,2,1.023057599,"External",1,6,NA,"40"
"504","P1",1,"RetGoals_V1","2022.2.4",4,24,0,2,0.985848484,"External",0,7,NA,"40"
"505","P1",1,"RetGoals_V1","2022.2.4",4,25,0,4,1.119112464,"External",2,8,NA,"40"
"506","P1",1,"RetGoals_V1","2022.2.4",4,26,1,4,0.583371392,"External",2,7,NA,"40"
"507","P1",1,"RetGoals_V1","2022.2.4",4,27,0,3,1.100480939,"External",2,8,NA,"40"
"508","P1",1,"RetGoals_V1","2022.2.4",4,28,0,2,0.715688487,"External",0,6,NA,"40"
"509","P1",1,"RetGoals_V1","2022.2.4",4,29,1,2,1.013109209,"External",1,7,NA,"40"
"510","P1",1,"RetGoals_V1","2022.2.4",4,30,0,4,0.552886153,"External",1,8,NA,"40"
"511","P1",1,"RetGoals_V1","2022.2.4",4,31,0,4,1.158596967,"External",0,6,NA,"40"
"512","P1",1,"RetGoals_V1","2022.2.4",4,32,0,NA,NA,"External",0,5,NA,"40"
"513","P1",1,"RetGoals_V1","2022.2.4",4,33,0,NA,NA,"External",1,7,NA,"40"
"514","P1",1,"RetGoals_V1","2022.2.4",4,34,1,2,1.117423878,"External",2,8,NA,"40"
"515","P1",1,"RetGoals_V1","2022.2.4",4,35,1,2,1.101648083,"External",2,7,NA,"40"
"516","P1",1,"RetGoals_V1","2022.2.4",4,36,1,4,0.653010892,"External",2,7,NA,"40"
"517","P1",1,"RetGoals_V1","2022.2.4",4,37,1,4,1.216550993,"External",2,8,NA,"40"
"518","P1",1,"RetGoals_V1","2022.2.4",4,38,0,2,1.187531519,"External",0,5,NA,"40"
"519","P1",1,"RetGoals_V1","2022.2.4",4,39,0,NA,NA,"External",2,7,NA,"40"
"520","P1",1,"RetGoals_V1","2022.2.4",4,40,1,3,0.785747893,"External",0,8,NA,"40"
"521","P1",1,"RetGoals_V1","2022.2.4",4,1,1,3,0.660724247,"Encoding",NA,NA,NA,"40"
"522","P1",1,"RetGoals_V1","2022.2.4",4,2,1,2,0.42972197,"Encoding",NA,NA,NA,"40"
"523","P1",1,"RetGoals_V1","2022.2.4",4,3,1,3,1.046354162,"Encoding",NA,NA,NA,"40"
"524","P1",1,"RetGoals_V1","2022.2.4",4,4,1,4,0.677134143,"Encoding",NA,NA,NA,"40"
"525","P1",1,"RetGoals_V1","2022.2.4",4,5,1,3,0.895059051,"Encoding",NA,NA,NA,"40"
"526","P1",1,"RetGoals_V1","2022.2.4",4,6,1,3,0.446953082,"Encoding",NA,NA,NA,"40"
"527","P1",1,"RetGoals_V1","2022.2.4",4,7,1,2,0.767994519,"Encoding",NA,NA,NA,"40"
"528","P1",1,"RetGoals_V1","2022.2.4",4,8,1,2,0.800292841,"Encoding",NA,NA,NA,"40"
"529","P1",1,"RetGoals_V1","2022.2.4",4,9,1,4,0.670539953,"Encoding",NA,NA,NA,"40"
"530","P1",1,"RetGoals_V1","2022.2.4",4,10,1,4,0.959877912,"Encoding",NA,NA,NA,"40"
"531","P1",1,"RetGoals_V1","2022.2.4",4,11,1,4,0.697095453,"Encoding",NA,NA,NA,"40"
"532","P1",1,"RetGoals_V1","2022.2.4",4,12,1,4,0.608454098,"Encoding",NA,NA,NA,"40"
"533","P1",1,"RetGoals_V1","2022.2.4",4,13,1,2,0.839675239,"Encoding",NA,NA,NA,"40"
"534","P1",1,"RetGoals_V1","2022.2.4",4,14,1,3,0.633835121,"Encoding",NA,NA,NA,"40"
"535","P1",1,"RetGoals_V1","2022.2.4",4,15,1,2,1.050547353,"Encoding",NA,NA,NA,"40"
"536","P1",1,"RetGoals_V1","2022.2.4",4,16,1,3,1.051239891,"Encoding",NA,NA,NA,"40"
"537","P1",1,"RetGoals_V1","2022.2.4",4,17,1,2,0.802299583,"Encoding",NA,NA,NA,"40"
"538","P1",1,"RetGoals_V1","2022.2.4",4,18,1,3,0.842488645,"Encoding",NA,NA,NA,"40"
"539","P1",1,"RetGoals_V1","2022.2.4",4,19,1,2,0.946384546,"Encoding",NA,NA,NA,"40"
"540","P1",1,"RetGoals_V1","2022.2.4",4,20,1,2,1.386250076,"Encoding",NA,NA,NA,"40"
"541","P1",1,"RetGoals_V1","2022.2.4",4,21,1,3,1.09059327,"Encoding",NA,NA,NA,"40"
"542","P1",1,"RetGoals_V1","2022.2.4",4,22,1,3,1.099345518,"Encoding",NA,NA,NA,"40"
"543","P1",1,"RetGoals_V1","2022.2.4",4,23,1,4,1.12313113,"Encoding",NA,NA,NA,"40"
"544","P1",1,"RetGoals_V1","2022.2.4",4,24,0,NA,NA,"Encoding",NA,NA,NA,"40"
"545","P1",1,"RetGoals_V1","2022.2.4",4,25,1,2,0.875512851,"Encoding",NA,NA,NA,"40"
"546","P1",1,"RetGoals_V1","2022.2.4",4,26,1,2,1.24350392,"Encoding",NA,NA,NA,"40"
"547","P1",1,"RetGoals_V1","2022.2.4",4,27,1,4,1.102264152,"Encoding",NA,NA,NA,"40"
"548","P1",1,"RetGoals_V1","2022.2.4",4,28,1,4,1.077451016,"Encoding",NA,NA,NA,"40"
"549","P1",1,"RetGoals_V1","2022.2.4",4,29,1,4,0.949930059,"Encoding",NA,NA,NA,"40"
"550","P1",1,"RetGoals_V1","2022.2.4",4,30,1,3,1.173450167,"Encoding",NA,NA,NA,"40"
"551","P1",1,"RetGoals_V1","2022.2.4",4,31,1,3,0.966103358,"Encoding",NA,NA,NA,"40"
"552","P1",1,"RetGoals_V1","2022.2.4",4,32,1,2,0.637665061,"Encoding",NA,NA,NA,"40"
"553","P1",1,"RetGoals_V1","2022.2.4",4,33,1,3,1.270495656,"Encoding",NA,NA,NA,"40"
"554","P1",1,"RetGoals_V1","2022.2.4",4,34,1,4,1.038238737,"Encoding",NA,NA,NA,"40"
"555","P1",1,"RetGoals_V1","2022.2.4",4,35,1,3,0.999579143,"Encoding",NA,NA,NA,"40"
"556","P1",1,"RetGoals_V1","2022.2.4",4,36,1,4,0.735886833,"Encoding",NA,NA,NA,"40"
"557","P1",1,"RetGoals_V1","2022.2.4",4,37,1,3,0.607609586,"Encoding",NA,NA,NA,"40"
"558","P1",1,"RetGoals_V1","2022.2.4",4,38,1,4,0.552112203,"Encoding",NA,NA,NA,"40"
"559","P1",1,"RetGoals_V1","2022.2.4",4,39,1,3,1.000583271,"Encoding",NA,NA,NA,"40"
"560","P1",1,"RetGoals_V1","2022.2.4",4,40,1,4,0.848818146,"Encoding",NA,NA,NA,"40"
"561","P1",1,"RetGoals_V1","2022.2.4",4,1,1,2,1.186457868,"Internal",10,NA,2,"40"
"562","P1",1,"RetGoals_V1","2022.2.4",4,2,0,2,1.261907353,"Internal",1,NA,0,"40"
"563","P1",1,"RetGoals_V1","2022.2.4",4,3,0,NA,NA,"Internal",0,NA,0,"40"
"564","P1",1,"RetGoals_V1","2022.2.4",4,4,1,2,0.287127702,"Internal",3,NA,0,"40"
"565","P1",1,"RetGoals_V1","2022.2.4",4,5,1,3,0.92887251,"Internal",0,NA,0,"40"
"566","P1",1,"RetGoals_V1","2022.2.4",4,6,1,3,1.112354374,"Internal",0,NA,0,"40"
"567","P1",1,"RetGoals_V1","2022.2.4",4,7,1,4,0.600570953,"Internal",1,NA,0,"40"
"568","P1",1,"RetGoals_V1","2022.2.4",4,8,1,4,0.366205277,"Internal",4,NA,0,"40"
"569","P1",1,"RetGoals_V1","2022.2.4",4,9,0,2,0.227831314,"Internal",0,NA,0,"40"
"570","P1",1,"RetGoals_V1","2022.2.4",4,10,1,4,0.760888996,"Internal",1,NA,0,"40"
"571","P1",1,"RetGoals_V1","2022.2.4",4,11,1,3,0.199427902,"Internal",0,NA,0,"40"
"572","P1",1,"RetGoals_V1","2022.2.4",4,12,1,4,0.29967557,"Internal",15,NA,1,"40"
"573","P1",1,"RetGoals_V1","2022.2.4",4,13,1,2,1.14091163,"Internal",2,NA,0,"40"
"574","P1",1,"RetGoals_V1","2022.2.4",4,14,0,2,0.843455039,"Internal",0,NA,0,"40"
"575","P1",1,"RetGoals_V1","2022.2.4",4,15,0,NA,NA,"Internal",1,NA,0,"40"
"576","P1",1,"RetGoals_V1","2022.2.4",4,16,1,3,1.278439463,"Internal",0,NA,0,"40"
"577","P1",1,"RetGoals_V1","2022.2.4",4,17,1,2,0.758936279,"Internal",6,NA,0,"40"
"578","P1",1,"RetGoals_V1","2022.2.4",4,18,0,2,0.989471248,"Internal",0,NA,0,"40"
"579","P1",1,"RetGoals_V1","2022.2.4",4,19,0,NA,NA,"Internal",2,NA,0,"40"
"580","P1",1,"RetGoals_V1","2022.2.4",4,20,1,4,0.32205011,"Internal",4,NA,0,"40"
"581","P1",1,"RetGoals_V1","2022.2.4",4,21,1,2,1.115132999,"Internal",2,NA,0,"40"
"582","P1",1,"RetGoals_V1","2022.2.4",4,22,1,4,0.754505902,"Internal",5,NA,2,"40"
"583","P1",1,"RetGoals_V1","2022.2.4",4,23,0,NA,NA,"Internal",1,NA,0,"40"
"584","P1",1,"RetGoals_V1","2022.2.4",4,24,0,NA,NA,"Internal",0,NA,0,"40"
"585","P1",1,"RetGoals_V1","2022.2.4",4,25,1,2,0.577657848,"Internal",4,NA,0,"40"
"586","P1",1,"RetGoals_V1","2022.2.4",4,26,1,2,0.902303074,"Internal",7,NA,1,"40"
"587","P1",1,"RetGoals_V1","2022.2.4",4,27,0,2,1.327175395,"Internal",0,NA,0,"40"
"588","P1",1,"RetGoals_V1","2022.2.4",4,28,1,2,0.926781646,"Internal",1,NA,0,"40"
"589","P1",1,"RetGoals_V1","2022.2.4",4,29,0,NA,NA,"Internal",0,NA,0,"40"
"590","P1",1,"RetGoals_V1","2022.2.4",4,30,0,NA,NA,"Internal",1,NA,2,"40"
"591","P1",1,"RetGoals_V1","2022.2.4",4,31,0,NA,NA,"Internal",1,NA,2,"40"
"592","P1",1,"RetGoals_V1","2022.2.4",4,32,0,NA,NA,"Internal",4,NA,0,"40"
"593","P1",1,"RetGoals_V1","2022.2.4",4,33,0,2,1.342688224,"Internal",1,NA,0,"40"
"594","P1",1,"RetGoals_V1","2022.2.4",4,34,1,4,0.83694616,"Internal",9,NA,0,"40"
"595","P1",1,"RetGoals_V1","2022.2.4",4,35,1,4,1.255672557,"Internal",6,NA,0,"40"
"596","P1",1,"RetGoals_V1","2022.2.4",4,36,1,2,0.785362822,"Internal",1,NA,0,"40"
"597","P1",1,"RetGoals_V1","2022.2.4",4,37,0,4,1.342705651,"Internal",0,NA,0,"40"
"598","P1",1,"RetGoals_V1","2022.2.4",4,38,0,NA,NA,"Internal",1,NA,0,"40"
"599","P1",1,"RetGoals_V1","2022.2.4",4,39,0,NA,NA,"Internal",7,NA,1,"40"
"600","P1",1,"RetGoals_V1","2022.2.4",4,40,1,4,0.32454774,"Internal",14,NA,0,"40"
"601","P1",1,"RetGoals_V1","2022.2.4",4,1,1,2,0.566598641,"Retrieval",NA,NA,NA,"40"
"602","P1",1,"RetGoals_V1","2022.2.4",4,2,1,3,0.572172205,"Retrieval",NA,NA,NA,"40"
"603","P1",1,"RetGoals_V1","2022.2.4",4,3,0,3,0.329197792,"Retrieval",NA,NA,NA,"40"
"604","P1",1,"RetGoals_V1","2022.2.4",4,4,1,2,0.305825143,"Retrieval",NA,NA,NA,"40"
"605","P1",1,"RetGoals_V1","2022.2.4",4,5,1,2,0.290284043,"Retrieval",NA,NA,NA,"40"
"606","P1",1,"RetGoals_V1","2022.2.4",4,6,1,3,0.32476889,"Retrieval",NA,NA,NA,"40"
"607","P1",1,"RetGoals_V1","2022.2.4",4,7,1,3,0.3165745,"Retrieval",NA,NA,NA,"40"
"608","P1",1,"RetGoals_V1","2022.2.4",4,8,1,2,0.324842761,"Retrieval",NA,NA,NA,"40"
"609","P1",1,"RetGoals_V1","2022.2.4",4,9,1,2,0.341676048,"Retrieval",NA,NA,NA,"40"
"610","P1",1,"RetGoals_V1","2022.2.4",4,10,0,4,0.307936436,"Retrieval",NA,NA,NA,"40"
"611","P1",1,"RetGoals_V1","2022.2.4",4,11,1,2,0.30163436,"Retrieval",NA,NA,NA,"40"
"612","P1",1,"RetGoals_V1","2022.2.4",4,12,1,4,0.293456107,"Retrieval",NA,NA,NA,"40"
"613","P1",1,"RetGoals_V1","2022.2.4",4,13,1,3,0.287749982,"Retrieval",NA,NA,NA,"40"
"614","P1",1,"RetGoals_V1","2022.2.4",4,14,0,4,0.936998893,"Retrieval",NA,NA,NA,"40"
"615","P1",1,"RetGoals_V1","2022.2.4",4,15,0,1,1.136290739,"Retrieval",NA,NA,NA,"40"
"616","P1",1,"RetGoals_V1","2022.2.4",4,16,1,3,0.285100883,"Retrieval",NA,NA,NA,"40"
"617","P1",1,"RetGoals_V1","2022.2.4",4,17,1,4,0.543285438,"Retrieval",NA,NA,NA,"40"
"618","P1",1,"RetGoals_V1","2022.2.4",4,18,1,3,0.319107504,"Retrieval",NA,NA,NA,"40"
"619","P1",1,"RetGoals_V1","2022.2.4",4,19,0,4,0.310987914,"Retrieval",NA,NA,NA,"40"
"620","P1",1,"RetGoals_V1","2022.2.4",4,20,1,2,0.311137212,"Retrieval",NA,NA,NA,"40"
"621","P1",1,"RetGoals_V1","2022.2.4",4,21,1,3,0.288848533,"Retrieval",NA,NA,NA,"40"
"622","P1",1,"RetGoals_V1","2022.2.4",4,22,0,2,1.424887539,"Retrieval",NA,NA,NA,"40"
"623","P1",1,"RetGoals_V1","2022.2.4",4,23,0,1,0.502112192,"Retrieval",NA,NA,NA,"40"
"624","P1",1,"RetGoals_V1","2022.2.4",4,24,1,3,0.509545635,"Retrieval",NA,NA,NA,"40"
"625","P1",1,"RetGoals_V1","2022.2.4",4,25,1,2,1.453897326,"Retrieval",NA,NA,NA,"40"
"626","P1",1,"RetGoals_V1","2022.2.4",4,26,0,1,0.30245308,"Retrieval",NA,NA,NA,"40"
"627","P1",1,"RetGoals_V1","2022.2.4",4,27,0,3,0.689189189,"Retrieval",NA,NA,NA,"40"
"628","P1",1,"RetGoals_V1","2022.2.4",4,28,1,2,1.385454264,"Retrieval",NA,NA,NA,"40"
"629","P1",1,"RetGoals_V1","2022.2.4",4,29,1,3,0.334791934,"Retrieval",NA,NA,NA,"40"
"630","P1",1,"RetGoals_V1","2022.2.4",4,30,0,1,0.453251224,"Retrieval",NA,NA,NA,"40"
"631","P1",1,"RetGoals_V1","2022.2.4",4,31,0,3,0.391938333,"Retrieval",NA,NA,NA,"40"
"632","P1",1,"RetGoals_V1","2022.2.4",4,32,1,2,0.301713268,"Retrieval",NA,NA,NA,"40"
"633","P1",1,"RetGoals_V1","2022.2.4",4,33,1,4,0.350917037,"Retrieval",NA,NA,NA,"40"
"634","P1",1,"RetGoals_V1","2022.2.4",4,34,0,1,0.468701665,"Retrieval",NA,NA,NA,"40"
"635","P1",1,"RetGoals_V1","2022.2.4",4,35,1,4,0.464220559,"Retrieval",NA,NA,NA,"40"
"636","P1",1,"RetGoals_V1","2022.2.4",4,36,1,4,0.401123946,"Retrieval",NA,NA,NA,"40"
"637","P1",1,"RetGoals_V1","2022.2.4",4,37,1,2,0.44698481,"Retrieval",NA,NA,NA,"40"
"638","P1",1,"RetGoals_V1","2022.2.4",4,38,1,2,0.377529827,"Retrieval",NA,NA,NA,"40"
"639","P1",1,"RetGoals_V1","2022.2.4",4,39,1,3,0.344319516,"Retrieval",NA,NA,NA,"40"
"640","P1",1,"RetGoals_V1","2022.2.4",4,40,1,2,1.048190735,"Retrieval",NA,NA,NA,"40"
"641","P1",1,"RetGoals_V1","2022.2.4",5,1,0,NA,NA,"External",0,7,NA,"40"
"642","P1",1,"RetGoals_V1","2022.2.4",5,2,1,4,0.811145578,"External",1,6,NA,"40"
"643","P1",1,"RetGoals_V1","2022.2.4",5,3,1,2,0.623671648,"External",1,6,NA,"40"
"644","P1",1,"RetGoals_V1","2022.2.4",5,4,0,2,1.186927959,"External",0,8,NA,"40"
"645","P1",1,"RetGoals_V1","2022.2.4",5,5,1,4,0.368887718,"External",2,8,NA,"40"
"646","P1",1,"RetGoals_V1","2022.2.4",5,6,0,NA,NA,"External",0,5,NA,"40"
"647","P1",1,"RetGoals_V1","2022.2.4",5,7,1,4,0.621336617,"External",1,8,NA,"40"
"648","P1",1,"RetGoals_V1","2022.2.4",5,8,1,4,0.72185441,"External",2,7,NA,"40"
"649","P1",1,"RetGoals_V1","2022.2.4",5,9,1,3,1.352951296,"External",0,7,NA,"40"
"650","P1",1,"RetGoals_V1","2022.2.4",5,10,1,3,0.967143207,"External",0,6,NA,"40"
"651","P1",1,"RetGoals_V1","2022.2.4",5,11,1,3,1.101635798,"External",0,8,NA,"40"
"652","P1",1,"RetGoals_V1","2022.2.4",5,12,0,4,0.525245028,"External",0,5,NA,"40"
"653","P1",1,"RetGoals_V1","2022.2.4",5,13,1,4,0.876581569,"External",1,8,NA,"40"
"654","P1",1,"RetGoals_V1","2022.2.4",5,14,0,NA,NA,"External",0,7,NA,"40"
"655","P1",1,"RetGoals_V1","2022.2.4",5,15,1,2,0.712304047,"External",2,8,NA,"40"
"656","P1",1,"RetGoals_V1","2022.2.4",5,16,0,2,0.823172039,"External",0,8,NA,"40"
"657","P1",1,"RetGoals_V1","2022.2.4",5,17,1,2,1.026508045,"External",1,6,NA,"40"
"658","P1",1,"RetGoals_V1","2022.2.4",5,18,0,NA,NA,"External",2,7,NA,"40"
"659","P1",1,"RetGoals_V1","2022.2.4",5,19,1,2,0.621874275,"External",1,6,NA,"40"
"660","P1",1,"RetGoals_V1","2022.2.4",5,20,1,4,0.450970724,"External",1,6,NA,"40"
"661","P1",1,"RetGoals_V1","2022.2.4",5,21,1,4,1.349560111,"External",1,8,NA,"40"
"662","P1",1,"RetGoals_V1","2022.2.4",5,22,1,2,0.843702257,"External",1,8,NA,"40"
"663","P1",1,"RetGoals_V1","2022.2.4",5,23,0,4,0.573975672,"External",0,5,NA,"40"
"664","P1",1,"RetGoals_V1","2022.2.4",5,24,1,4,0.700633831,"External",2,7,NA,"40"
"665","P1",1,"RetGoals_V1","2022.2.4",5,25,1,2,0.860845193,"External",2,8,NA,"40"
"666","P1",1,"RetGoals_V1","2022.2.4",5,26,0,4,1.047853786,"External",0,7,NA,"40"
"667","P1",1,"RetGoals_V1","2022.2.4",5,27,1,3,1.40936311,"External",0,8,NA,"40"
"668","P1",1,"RetGoals_V1","2022.2.4",5,28,0,NA,NA,"External",2,7,NA,"40"
"669","P1",1,"RetGoals_V1","2022.2.4",5,29,0,2,0.918407214,"External",0,8,NA,"40"
"670","P1",1,"RetGoals_V1","2022.2.4",5,30,0,NA,NA,"External",2,8,NA,"40"
"671","P1",1,"RetGoals_V1","2022.2.4",5,31,1,4,0.726796416,"External",2,8,NA,"40"
"672","P1",1,"RetGoals_V1","2022.2.4",5,32,1,2,0.413858383,"External",2,7,NA,"40"
"673","P1",1,"RetGoals_V1","2022.2.4",5,33,1,3,1.138354461,"External",0,5,NA,"40"
"674","P1",1,"RetGoals_V1","2022.2.4",5,34,0,NA,NA,"External",0,5,NA,"40"
"675","P1",1,"RetGoals_V1","2022.2.4",5,35,1,3,0.968852913,"External",0,5,NA,"40"
"676","P1",1,"RetGoals_V1","2022.2.4",5,36,1,2,1.023641854,"External",1,7,NA,"40"
"677","P1",1,"RetGoals_V1","2022.2.4",5,37,0,NA,NA,"External",1,6,NA,"40"
"678","P1",1,"RetGoals_V1","2022.2.4",5,38,0,2,0.777701547,"External",0,6,NA,"40"
"679","P1",1,"RetGoals_V1","2022.2.4",5,39,1,4,1.07977344,"External",2,8,NA,"40"
"680","P1",1,"RetGoals_V1","2022.2.4",5,40,1,4,1.248966634,"External",1,6,NA,"40"
"681","P1",1,"RetGoals_V1","2022.2.4",5,1,1,3,0.370831414,"Encoding",NA,NA,NA,"40"
"682","P1",1,"RetGoals_V1","2022.2.4",5,2,1,3,0.96423159,"Encoding",NA,NA,NA,"40"
"683","P1",1,"RetGoals_V1","2022.2.4",5,3,1,2,0.948043759,"Encoding",NA,NA,NA,"40"
"684","P1",1,"RetGoals_V1","2022.2.4",5,4,1,3,0.523241252,"Encoding",NA,NA,NA,"40"
"685","P1",1,"RetGoals_V1","2022.2.4",5,5,1,3,1.100447195,"Encoding",NA,NA,NA,"40"
"686","P1",1,"RetGoals_V1","2022.2.4",5,6,1,2,0.627826639,"Encoding",NA,NA,NA,"40"
"687","P1",1,"RetGoals_V1","2022.2.4",5,7,1,2,0.621773171,"Encoding",NA,NA,NA,"40"
"688","P1",1,"RetGoals_V1","2022.2.4",5,8,1,4,0.124323778,"Encoding",NA,NA,NA,"40"
"689","P1",1,"RetGoals_V1","2022.2.4",5,9,1,3,0.404258865,"Encoding",NA,NA,NA,"40"
"690","P1",1,"RetGoals_V1","2022.2.4",5,10,1,4,1.453749936,"Encoding",NA,NA,NA,"40"
"691","P1",1,"RetGoals_V1","2022.2.4",5,11,1,3,1.373552441,"Encoding",NA,NA,NA,"40"
"692","P1",1,"RetGoals_V1","2022.2.4",5,12,1,3,0.853449969,"Encoding",NA,NA,NA,"40"
"693","P1",1,"RetGoals_V1","2022.2.4",5,13,0,NA,NA,"Encoding",NA,NA,NA,"40"
"694","P1",1,"RetGoals_V1","2022.2.4",5,14,1,4,0.654581606,"Encoding",NA,NA,NA,"40"
"695","P1",1,"RetGoals_V1","2022.2.4",5,15,1,2,0.743178425,"Encoding",NA,NA,NA,"40"
"696","P1",1,"RetGoals_V1","2022.2.4",5,16,1,3,1.078830553,"Encoding",NA,NA,NA,"40"
"697","P1",1,"RetGoals_V1","2022.2.4",5,17,1,4,0.75101112,"Encoding",NA,NA,NA,"40"
"698","P1",1,"RetGoals_V1","2022.2.4",5,18,1,4,0.671623628,"Encoding",NA,NA,NA,"40"
"699","P1",1,"RetGoals_V1","2022.2.4",5,19,1,2,0.943901774,"Encoding",NA,NA,NA,"40"
"700","P1",1,"RetGoals_V1","2022.2.4",5,20,1,2,1.296506559,"Encoding",NA,NA,NA,"40"
"701","P1",1,"RetGoals_V1","2022.2.4",5,21,1,4,1.239980085,"Encoding",NA,NA,NA,"40"
"702","P1",1,"RetGoals_V1","2022.2.4",5,22,1,2,0.960231415,"Encoding",NA,NA,NA,"40"
"703","P1",1,"RetGoals_V1","2022.2.4",5,23,1,3,0.936865951,"Encoding",NA,NA,NA,"40"
"704","P1",1,"RetGoals_V1","2022.2.4",5,24,1,2,0.769061139,"Encoding",NA,NA,NA,"40"
"705","P1",1,"RetGoals_V1","2022.2.4",5,25,1,2,0.70600321,"Encoding",NA,NA,NA,"40"
"706","P1",1,"RetGoals_V1","2022.2.4",5,26,1,3,0.698535048,"Encoding",NA,NA,NA,"40"
"707","P1",1,"RetGoals_V1","2022.2.4",5,27,1,2,0.459562886,"Encoding",NA,NA,NA,"40"
"708","P1",1,"RetGoals_V1","2022.2.4",5,28,1,3,0.052454913,"Encoding",NA,NA,NA,"40"
"709","P1",1,"RetGoals_V1","2022.2.4",5,29,1,4,0.954923121,"Encoding",NA,NA,NA,"40"
"710","P1",1,"RetGoals_V1","2022.2.4",5,30,1,2,0.962888679,"Encoding",NA,NA,NA,"40"
"711","P1",1,"RetGoals_V1","2022.2.4",5,31,1,3,0.874992275,"Encoding",NA,NA,NA,"40"
"712","P1",1,"RetGoals_V1","2022.2.4",5,32,1,3,0.859962887,"Encoding",NA,NA,NA,"40"
"713","P1",1,"RetGoals_V1","2022.2.4",5,33,1,3,0.964737129,"Encoding",NA,NA,NA,"40"
"714","P1",1,"RetGoals_V1","2022.2.4",5,34,1,2,1.292439544,"Encoding",NA,NA,NA,"40"
"715","P1",1,"RetGoals_V1","2022.2.4",5,35,1,4,1.004035368,"Encoding",NA,NA,NA,"40"
"716","P1",1,"RetGoals_V1","2022.2.4",5,36,1,2,0.461788105,"Encoding",NA,NA,NA,"40"
"717","P1",1,"RetGoals_V1","2022.2.4",5,37,1,3,0.997478771,"Encoding",NA,NA,NA,"40"
"718","P1",1,"RetGoals_V1","2022.2.4",5,38,1,3,1.260773012,"Encoding",NA,NA,NA,"40"
"719","P1",1,"RetGoals_V1","2022.2.4",5,39,1,2,0.637831661,"Encoding",NA,NA,NA,"40"
"720","P1",1,"RetGoals_V1","2022.2.4",5,40,1,2,0.614365651,"Encoding",NA,NA,NA,"40"
"721","P1",1,"RetGoals_V1","2022.2.4",5,1,1,2,0.959622902,"Internal",2,NA,0,"40"
"722","P1",1,"RetGoals_V1","2022.2.4",5,2,1,3,1.317059544,"Internal",0,NA,0,"40"
"723","P1",1,"RetGoals_V1","2022.2.4",5,3,0,2,0.780671819,"Internal",0,NA,0,"40"
"724","P1",1,"RetGoals_V1","2022.2.4",5,4,1,2,1.267252789,"Internal",1,NA,0,"40"
"725","P1",1,"RetGoals_V1","2022.2.4",5,5,0,NA,NA,"Internal",0,NA,0,"40"
"726","P1",1,"RetGoals_V1","2022.2.4",5,6,1,4,0.755940437,"Internal",4,NA,0,"40"
"727","P1",1,"RetGoals_V1","2022.2.4",5,7,1,2,1.019798565,"Internal",11,NA,0,"40"
"728","P1",1,"RetGoals_V1","2022.2.4",5,8,1,2,0.782115408,"Internal",2,NA,0,"40"
"729","P1",1,"RetGoals_V1","2022.2.4",5,9,0,4,1.306694861,"Internal",0,NA,2,"40"
"730","P1",1,"RetGoals_V1","2022.2.4",5,10,1,4,0.707139871,"Internal",3,NA,0,"40"
"731","P1",1,"RetGoals_V1","2022.2.4",5,11,1,2,1.042472734,"Internal",4,NA,0,"40"
"732","P1",1,"RetGoals_V1","2022.2.4",5,12,0,NA,NA,"Internal",0,NA,2,"40"
"733","P1",1,"RetGoals_V1","2022.2.4",5,13,0,NA,NA,"Internal",0,NA,0,"40"
"734","P1",1,"RetGoals_V1","2022.2.4",5,14,0,3,1.118701963,"Internal",1,NA,0,"40"
"735","P1",1,"RetGoals_V1","2022.2.4",5,15,1,2,0.902318201,"Internal",3,NA,0,"40"
"736","P1",1,"RetGoals_V1","2022.2.4",5,16,1,2,1.038501961,"Internal",1,NA,0,"40"
"737","P1",1,"RetGoals_V1","2022.2.4",5,17,1,4,0.897279389,"Internal",1,NA,0,"40"
"738","P1",1,"RetGoals_V1","2022.2.4",5,18,1,4,1.137353231,"Internal",3,NA,0,"40"
"739","P1",1,"RetGoals_V1","2022.2.4",5,19,1,3,1.056449485,"Internal",0,NA,0,"40"
"740","P1",1,"RetGoals_V1","2022.2.4",5,20,0,NA,NA,"Internal",12,NA,1,"40"
"741","P1",1,"RetGoals_V1","2022.2.4",5,21,0,2,1.13065099,"Internal",0,NA,0,"40"
"742","P1",1,"RetGoals_V1","2022.2.4",5,22,0,NA,NA,"Internal",0,NA,0,"40"
"743","P1",1,"RetGoals_V1","2022.2.4",5,23,0,4,0.81822377,"Internal",0,NA,2,"40"
"744","P1",1,"RetGoals_V1","2022.2.4",5,24,0,NA,NA,"Internal",1,NA,0,"40"
"745","P1",1,"RetGoals_V1","2022.2.4",5,25,0,NA,NA,"Internal",4,NA,0,"40"
"746","P1",1,"RetGoals_V1","2022.2.4",5,26,1,2,1.221818457,"Internal",3,NA,0,"40"
"747","P1",1,"RetGoals_V1","2022.2.4",5,27,0,NA,NA,"Internal",0,NA,0,"40"
"748","P1",1,"RetGoals_V1","2022.2.4",5,28,0,2,0.640522788,"Internal",0,NA,0,"40"
"749","P1",1,"RetGoals_V1","2022.2.4",5,29,1,4,1.124212961,"Internal",19,NA,1,"40"
"750","P1",1,"RetGoals_V1","2022.2.4",5,30,1,2,0.306904483,"Internal",12,NA,0,"40"
"751","P1",1,"RetGoals_V1","2022.2.4",5,31,0,2,1.172518919,"Internal",0,NA,0,"40"
"752","P1",1,"RetGoals_V1","2022.2.4",5,32,0,2,1.250924396,"Internal",6,NA,2,"40"
"753","P1",1,"RetGoals_V1","2022.2.4",5,33,0,NA,NA,"Internal",0,NA,0,"40"
"754","P1",1,"RetGoals_V1","2022.2.4",5,34,0,NA,NA,"Internal",2,NA,0,"40"
"755","P1",1,"RetGoals_V1","2022.2.4",5,35,1,2,1.124555382,"Internal",3,NA,0,"40"
"756","P1",1,"RetGoals_V1","2022.2.4",5,36,1,2,0.970770302,"Internal",6,NA,0,"40"
"757","P1",1,"RetGoals_V1","2022.2.4",5,37,1,4,1.016973865,"Internal",2,NA,0,"40"
"758","P1",1,"RetGoals_V1","2022.2.4",5,38,0,4,1.085326785,"Internal",0,NA,0,"40"
"759","P1",1,"RetGoals_V1","2022.2.4",5,39,1,2,0.261967276,"Internal",20,NA,1,"40"
"760","P1",1,"RetGoals_V1","2022.2.4",5,40,1,2,0.241209884,"Internal",12,NA,0,"40"
"761","P1",1,"RetGoals_V1","2022.2.4",5,1,1,4,0.564941716,"Retrieval",NA,NA,NA,"40"
"762","P1",1,"RetGoals_V1","2022.2.4",5,2,1,3,0.355327646,"Retrieval",NA,NA,NA,"40"
"763","P1",1,"RetGoals_V1","2022.2.4",5,3,1,2,0.3220277,"Retrieval",NA,NA,NA,"40"
"764","P1",1,"RetGoals_V1","2022.2.4",5,4,0,4,0.321062591,"Retrieval",NA,NA,NA,"40"
"765","P1",1,"RetGoals_V1","2022.2.4",5,5,1,4,0.409467194,"Retrieval",NA,NA,NA,"40"
"766","P1",1,"RetGoals_V1","2022.2.4",5,6,1,3,0.335036723,"Retrieval",NA,NA,NA,"40"
"767","P1",1,"RetGoals_V1","2022.2.4",5,7,1,4,0.350663073,"Retrieval",NA,NA,NA,"40"
"768","P1",1,"RetGoals_V1","2022.2.4",5,8,1,4,0.333737552,"Retrieval",NA,NA,NA,"40"
"769","P1",1,"RetGoals_V1","2022.2.4",5,9,0,4,0.284790989,"Retrieval",NA,NA,NA,"40"
"770","P1",1,"RetGoals_V1","2022.2.4",5,10,1,2,0.303511083,"Retrieval",NA,NA,NA,"40"
"771","P1",1,"RetGoals_V1","2022.2.4",5,11,1,3,0.312183826,"Retrieval",NA,NA,NA,"40"
"772","P1",1,"RetGoals_V1","2022.2.4",5,12,1,4,0.321074291,"Retrieval",NA,NA,NA,"40"
"773","P1",1,"RetGoals_V1","2022.2.4",5,13,1,4,0.288952498,"Retrieval",NA,NA,NA,"40"
"774","P1",1,"RetGoals_V1","2022.2.4",5,14,0,NA,NA,"Retrieval",NA,NA,NA,"40"
"775","P1",1,"RetGoals_V1","2022.2.4",5,15,0,1,0.305919458,"Retrieval",NA,NA,NA,"40"
"776","P1",1,"RetGoals_V1","2022.2.4",5,16,1,2,0.339035949,"Retrieval",NA,NA,NA,"40"
"777","P1",1,"RetGoals_V1","2022.2.4",5,17,0,3,0.5306203,"Retrieval",NA,NA,NA,"40"
"778","P1",1,"RetGoals_V1","2022.2.4",5,18,0,1,0.490186297,"Retrieval",NA,NA,NA,"40"
"779","P1",1,"RetGoals_V1","2022.2.4",5,19,1,3,0.243139382,"Retrieval",NA,NA,NA,"40"
"780","P1",1,"RetGoals_V1","2022.2.4",5,20,0,4,1.119341953,"Retrieval",NA,NA,NA,"40"
"781","P1",1,"RetGoals_V1","2022.2.4",5,21,0,1,0.446875468,"Retrieval",NA,NA,NA,"40"
"782","P1",1,"RetGoals_V1","2022.2.4",5,22,1,2,0.610058104,"Retrieval",NA,NA,NA,"40"
"783","P1",1,"RetGoals_V1","2022.2.4",5,23,1,2,0.30194965,"Retrieval",NA,NA,NA,"40"
"784","P1",1,"RetGoals_V1","2022.2.4",5,24,0,1,0.357986838,"Retrieval",NA,NA,NA,"40"
"785","P1",1,"RetGoals_V1","2022.2.4",5,25,0,4,0.468778265,"Retrieval",NA,NA,NA,"40"
"786","P1",1,"RetGoals_V1","2022.2.4",5,26,1,4,0.368522378,"Retrieval",NA,NA,NA,"40"
"787","P1",1,"RetGoals_V1","2022.2.4",5,27,1,2,0.318248279,"Retrieval",NA,NA,NA,"40"
"788","P1",1,"RetGoals_V1","2022.2.4",5,28,0,3,0.381602058,"Retrieval",NA,NA,NA,"40"
"789","P1",1,"RetGoals_V1","2022.2.4",5,29,1,4,0.284140794,"Retrieval",NA,NA,NA,"40"
"790","P1",1,"RetGoals_V1","2022.2.4",5,30,0,3,0.366509083,"Retrieval",NA,NA,NA,"40"
"791","P1",1,"RetGoals_V1","2022.2.4",5,31,1,2,0.37233109,"Retrieval",NA,NA,NA,"40"
"792","P1",1,"RetGoals_V1","2022.2.4",5,32,0,3,0.283130652,"Retrieval",NA,NA,NA,"40"
"793","P1",1,"RetGoals_V1","2022.2.4",5,33,0,NA,NA,"Retrieval",NA,NA,NA,"40"
"794","P1",1,"RetGoals_V1","2022.2.4",5,34,0,NA,NA,"Retrieval",NA,NA,NA,"40"
"795","P1",1,"RetGoals_V1","2022.2.4",5,35,1,4,0.332874074,"Retrieval",NA,NA,NA,"40"
"796","P1",1,"RetGoals_V1","2022.2.4",5,36,0,4,0.540560005,"Retrieval",NA,NA,NA,"40"
"797","P1",1,"RetGoals_V1","2022.2.4",5,37,0,1,0.315496789,"Retrieval",NA,NA,NA,"40"
"798","P1",1,"RetGoals_V1","2022.2.4",5,38,0,1,0.685348458,"Retrieval",NA,NA,NA,"40"
"799","P1",1,"RetGoals_V1","2022.2.4",5,39,0,3,1.213120304,"Retrieval",NA,NA,NA,"40"
"800","P1",1,"RetGoals_V1","2022.2.4",5,40,1,2,0.337560765,"Retrieval",NA,NA,NA,"40"
"801","P1",1,"RetGoals_V1","2022.2.4",6,1,1,2,0.166689214,"External",1,6,NA,"10"
"802","P1",1,"RetGoals_V1","2022.2.4",6,2,1,4,0.123352403,"External",2,8,NA,"10"
"803","P1",1,"RetGoals_V1","2022.2.4",6,3,1,2,0.476087939,"External",2,8,NA,"10"
"804","P1",1,"RetGoals_V1","2022.2.4",6,4,0,4,0.302051488,"External",0,8,NA,"10"
"805","P1",1,"RetGoals_V1","2022.2.4",6,5,1,4,0.263732909,"External",2,7,NA,"10"
"806","P1",1,"RetGoals_V1","2022.2.4",6,6,0,3,0.362525051,"External",1,7,NA,"10"
"807","P1",1,"RetGoals_V1","2022.2.4",6,7,0,NA,NA,"External",0,6,NA,"10"
"808","P1",1,"RetGoals_V1","2022.2.4",6,8,1,2,0.272194279,"External",2,8,NA,"10"
"809","P1",1,"RetGoals_V1","2022.2.4",6,9,0,2,0.315321564,"External",0,7,NA,"10"
"810","P1",1,"RetGoals_V1","2022.2.4",6,10,0,2,0.451595007,"External",0,8,NA,"10"
"811","P1",1,"RetGoals_V1","2022.2.4",6,1,1,4,0.470912357,"Encoding",NA,NA,NA,"10"
"812","P1",1,"RetGoals_V1","2022.2.4",6,2,1,2,0.799640826,"Encoding",NA,NA,NA,"10"
"813","P1",1,"RetGoals_V1","2022.2.4",6,3,1,4,0.783445999,"Encoding",NA,NA,NA,"10"
"814","P1",1,"RetGoals_V1","2022.2.4",6,4,1,3,0.518503811,"Encoding",NA,NA,NA,"10"
"815","P1",1,"RetGoals_V1","2022.2.4",6,5,1,3,0.846970612,"Encoding",NA,NA,NA,"10"
"816","P1",1,"RetGoals_V1","2022.2.4",6,6,1,3,0.768596783,"Encoding",NA,NA,NA,"10"
"817","P1",1,"RetGoals_V1","2022.2.4",6,7,1,4,0.608378323,"Encoding",NA,NA,NA,"10"
"818","P1",1,"RetGoals_V1","2022.2.4",6,8,1,3,0.59151133,"Encoding",NA,NA,NA,"10"
"819","P1",1,"RetGoals_V1","2022.2.4",6,9,1,2,0.496012175,"Encoding",NA,NA,NA,"10"
"820","P1",1,"RetGoals_V1","2022.2.4",6,10,1,4,0.634368038,"Encoding",NA,NA,NA,"10"
"821","P1",1,"RetGoals_V1","2022.2.4",6,1,1,4,0.625330976,"Internal",25,NA,1,"10"
"822","P1",1,"RetGoals_V1","2022.2.4",6,2,1,4,0.876833065,"Internal",3,NA,0,"10"
"823","P1",1,"RetGoals_V1","2022.2.4",6,3,1,4,0.854914058,"Internal",1,NA,0,"10"
"824","P1",1,"RetGoals_V1","2022.2.4",6,4,0,2,1.37614015,"Internal",0,NA,0,"10"
"825","P1",1,"RetGoals_V1","2022.2.4",6,5,0,2,1.324966428,"Internal",0,NA,0,"10"
"826","P1",1,"RetGoals_V1","2022.2.4",6,6,0,NA,NA,"Internal",0,NA,0,"10"
"827","P1",1,"RetGoals_V1","2022.2.4",6,7,0,4,0.997462526,"Internal",1,NA,0,"10"
"828","P1",1,"RetGoals_V1","2022.2.4",6,8,0,NA,NA,"Internal",2,NA,0,"10"
"829","P1",1,"RetGoals_V1","2022.2.4",6,9,0,2,0.872704518,"Internal",0,NA,0,"10"
"830","P1",1,"RetGoals_V1","2022.2.4",6,10,1,4,0.548050525,"Internal",5,NA,0,"10"
"831","P1",1,"RetGoals_V1","2022.2.4",6,1,1,4,0.641970483,"Retrieval",NA,NA,NA,"10"
"832","P1",1,"RetGoals_V1","2022.2.4",6,2,1,3,0.453332835,"Retrieval",NA,NA,NA,"10"
"833","P1",1,"RetGoals_V1","2022.2.4",6,3,1,3,0.288704776,"Retrieval",NA,NA,NA,"10"
"834","P1",1,"RetGoals_V1","2022.2.4",6,4,1,4,0.322743014,"Retrieval",NA,NA,NA,"10"
"835","P1",1,"RetGoals_V1","2022.2.4",6,5,1,4,0.337040067,"Retrieval",NA,NA,NA,"10"
"836","P1",1,"RetGoals_V1","2022.2.4",6,6,1,2,0.369646585,"Retrieval",NA,NA,NA,"10"
"837","P1",1,"RetGoals_V1","2022.2.4",6,7,1,2,0.27101433,"Retrieval",NA,NA,NA,"10"
"838","P1",1,"RetGoals_V1","2022.2.4",6,8,1,4,0.352977851,"Retrieval",NA,NA,NA,"10"
"839","P1",1,"RetGoals_V1","2022.2.4",6,9,0,4,0.368741563,"Retrieval",NA,NA,NA,"10"
"840","P1",1,"RetGoals_V1","2022.2.4",6,10,0,3,0.318548292,"Retrieval",NA,NA,NA,"10"
"841","P1",1,"RetGoals_V1","2022.2.4",7,1,0,4,0.999299757,"External",2,7,NA,"10"
"842","P1",1,"RetGoals_V1","2022.2.4",7,2,1,2,1.285455233,"External",1,6,NA,"10"
"843","P1",1,"RetGoals_V1","2022.2.4",7,3,1,2,0.756536084,"External",1,7,NA,"10"
"844","P1",1,"RetGoals_V1","2022.2.4",7,4,1,4,0.578456463,"External",2,8,NA,"10"
"845","P1",1,"RetGoals_V1","2022.2.4",7,5,1,4,0.592692087,"External",2,8,NA,"10"
"846","P1",1,"RetGoals_V1","2022.2.4",7,6,0,2,0.340625006,"External",1,7,NA,"10"
"847","P1",1,"RetGoals_V1","2022.2.4",7,7,1,2,0.861989785,"External",2,8,NA,"10"
"848","P1",1,"RetGoals_V1","2022.2.4",7,8,1,4,0.367183651,"External",1,7,NA,"10"
"849","P1",1,"RetGoals_V1","2022.2.4",7,9,1,2,0.373448648,"External",2,8,NA,"10"
"850","P1",1,"RetGoals_V1","2022.2.4",7,10,0,2,0.724110194,"External",0,8,NA,"10"
"851","P1",1,"RetGoals_V1","2022.2.4",7,1,0,NA,NA,"Encoding",NA,NA,NA,"10"
"852","P1",1,"RetGoals_V1","2022.2.4",7,2,1,4,0.427920945,"Encoding",NA,NA,NA,"10"
"853","P1",1,"RetGoals_V1","2022.2.4",7,3,1,2,0.596031664,"Encoding",NA,NA,NA,"10"
"854","P1",1,"RetGoals_V1","2022.2.4",7,4,1,2,0.836275873,"Encoding",NA,NA,NA,"10"
"855","P1",1,"RetGoals_V1","2022.2.4",7,5,1,4,0.540733823,"Encoding",NA,NA,NA,"10"
"856","P1",1,"RetGoals_V1","2022.2.4",7,6,1,3,0.685996238,"Encoding",NA,NA,NA,"10"
"857","P1",1,"RetGoals_V1","2022.2.4",7,7,1,3,0.590647067,"Encoding",NA,NA,NA,"10"
"858","P1",1,"RetGoals_V1","2022.2.4",7,8,1,3,0.612813063,"Encoding",NA,NA,NA,"10"
"859","P1",1,"RetGoals_V1","2022.2.4",7,9,1,2,0.500610342,"Encoding",NA,NA,NA,"10"
"860","P1",1,"RetGoals_V1","2022.2.4",7,10,1,4,0.454556015,"Encoding",NA,NA,NA,"10"
"861","P1",1,"RetGoals_V1","2022.2.4",7,1,0,NA,NA,"Internal",0,NA,0,"10"
"862","P1",1,"RetGoals_V1","2022.2.4",7,2,1,4,0.35232826,"Internal",14,NA,0,"10"
"863","P1",1,"RetGoals_V1","2022.2.4",7,3,1,2,0.053325891,"Internal",4,NA,0,"10"
"864","P1",1,"RetGoals_V1","2022.2.4",7,4,1,2,0.024451417,"Internal",10,NA,0,"10"
"865","P1",1,"RetGoals_V1","2022.2.4",7,5,0,3,0.325532975,"Internal",1,NA,0,"10"
"866","P1",1,"RetGoals_V1","2022.2.4",7,6,0,NA,NA,"Internal",2,NA,0,"10"
"867","P1",1,"RetGoals_V1","2022.2.4",7,7,1,4,0.150702386,"Internal",6,NA,0,"10"
"868","P1",1,"RetGoals_V1","2022.2.4",7,8,1,4,1.419796642,"Internal",2,NA,0,"10"
"869","P1",1,"RetGoals_V1","2022.2.4",7,9,1,2,0.688099491,"Internal",9,NA,0,"10"
"870","P1",1,"RetGoals_V1","2022.2.4",7,10,1,4,0.552741689,"Internal",3,NA,0,"10"
"871","P1",1,"RetGoals_V1","2022.2.4",7,1,0,4,0.35198525,"Retrieval",NA,NA,NA,"10"
"872","P1",1,"RetGoals_V1","2022.2.4",7,2,1,3,0.350994701,"Retrieval",NA,NA,NA,"10"
"873","P1",1,"RetGoals_V1","2022.2.4",7,3,1,2,0.302173173,"Retrieval",NA,NA,NA,"10"
"874","P1",1,"RetGoals_V1","2022.2.4",7,4,1,2,0.228866346,"Retrieval",NA,NA,NA,"10"
"875","P1",1,"RetGoals_V1","2022.2.4",7,5,1,4,0.289483882,"Retrieval",NA,NA,NA,"10"
"876","P1",1,"RetGoals_V1","2022.2.4",7,6,0,4,0.258440824,"Retrieval",NA,NA,NA,"10"
"877","P1",1,"RetGoals_V1","2022.2.4",7,7,1,2,1.34181694,"Retrieval",NA,NA,NA,"10"
"878","P1",1,"RetGoals_V1","2022.2.4",7,8,0,2,0.333255489,"Retrieval",NA,NA,NA,"10"
"879","P1",1,"RetGoals_V1","2022.2.4",7,9,1,4,0.300808845,"Retrieval",NA,NA,NA,"10"
"880","P1",1,"RetGoals_V1","2022.2.4",7,10,0,4,0.334116811,"Retrieval",NA,NA,NA,"10"
"881","P1",1,"RetGoals_V1","2022.2.4",8,1,0,NA,NA,"External",2,7,NA,"10"
"882","P1",1,"RetGoals_V1","2022.2.4",8,2,0,NA,NA,"External",0,6,NA,"10"
"883","P1",1,"RetGoals_V1","2022.2.4",8,3,1,2,0.574076037,"External",2,7,NA,"10"
"884","P1",1,"RetGoals_V1","2022.2.4",8,4,1,4,0.34900965,"External",2,7,NA,"10"
"885","P1",1,"RetGoals_V1","2022.2.4",8,5,1,3,0.722968438,"External",0,8,NA,"10"
"886","P1",1,"RetGoals_V1","2022.2.4",8,6,0,2,1.083380558,"External",1,7,NA,"10"
"887","P1",1,"RetGoals_V1","2022.2.4",8,7,1,4,0.507573937,"External",2,7,NA,"10"
"888","P1",1,"RetGoals_V1","2022.2.4",8,8,0,3,0.540543262,"External",2,8,NA,"10"
"889","P1",1,"RetGoals_V1","2022.2.4",8,9,0,2,0.557013588,"External",1,8,NA,"10"
"890","P1",1,"RetGoals_V1","2022.2.4",8,10,1,2,0.362632161,"External",2,7,NA,"10"
"891","P1",1,"RetGoals_V1","2022.2.4",8,1,1,2,0.569216132,"Encoding",NA,NA,NA,"10"
"892","P1",1,"RetGoals_V1","2022.2.4",8,2,1,3,0.746156728,"Encoding",NA,NA,NA,"10"
"893","P1",1,"RetGoals_V1","2022.2.4",8,3,1,3,0.698358839,"Encoding",NA,NA,NA,"10"
"894","P1",1,"RetGoals_V1","2022.2.4",8,4,1,3,1.258709935,"Encoding",NA,NA,NA,"10"
"895","P1",1,"RetGoals_V1","2022.2.4",8,5,1,3,1.019996376,"Encoding",NA,NA,NA,"10"
"896","P1",1,"RetGoals_V1","2022.2.4",8,6,1,2,0.466690077,"Encoding",NA,NA,NA,"10"
"897","P1",1,"RetGoals_V1","2022.2.4",8,7,1,2,0.411059162,"Encoding",NA,NA,NA,"10"
"898","P1",1,"RetGoals_V1","2022.2.4",8,8,1,2,0.754474247,"Encoding",NA,NA,NA,"10"
"899","P1",1,"RetGoals_V1","2022.2.4",8,9,1,2,0.971650312,"Encoding",NA,NA,NA,"10"
"900","P1",1,"RetGoals_V1","2022.2.4",8,10,1,2,1.100323024,"Encoding",NA,NA,NA,"10"
"901","P1",1,"RetGoals_V1","2022.2.4",8,1,1,2,1.003932538,"Internal",5,NA,0,"10"
"902","P1",1,"RetGoals_V1","2022.2.4",8,2,0,NA,NA,"Internal",1,NA,0,"10"
"903","P1",1,"RetGoals_V1","2022.2.4",8,3,1,4,1.064400364,"Internal",3,NA,1,"10"
"904","P1",1,"RetGoals_V1","2022.2.4",8,4,1,4,0.722833943,"Internal",2,NA,0,"10"
"905","P1",1,"RetGoals_V1","2022.2.4",8,5,0,2,1.089797714,"Internal",0,NA,0,"10"
"906","P1",1,"RetGoals_V1","2022.2.4",8,6,1,2,1.138301817,"Internal",5,NA,0,"10"
"907","P1",1,"RetGoals_V1","2022.2.4",8,7,1,2,1.217410228,"Internal",7,NA,0,"10"
"908","P1",1,"RetGoals_V1","2022.2.4",8,8,1,2,1.19715934,"Internal",1,NA,0,"10"
"909","P1",1,"RetGoals_V1","2022.2.4",8,9,1,2,1.009193163,"Internal",12,NA,1,"10"
"910","P1",1,"RetGoals_V1","2022.2.4",8,10,1,2,0.757385187,"Internal",5,NA,0,"10"
"911","P1",1,"RetGoals_V1","2022.2.4",8,1,0,4,0.419566948,"Retrieval",NA,NA,NA,"10"
"912","P1",1,"RetGoals_V1","2022.2.4",8,2,0,3,0.287886673,"Retrieval",NA,NA,NA,"10"
"913","P1",1,"RetGoals_V1","2022.2.4",8,3,1,4,0.289232836,"Retrieval",NA,NA,NA,"10"
"914","P1",1,"RetGoals_V1","2022.2.4",8,4,1,2,0.227278583,"Retrieval",NA,NA,NA,"10"
"915","P1",1,"RetGoals_V1","2022.2.4",8,5,1,4,0.278850963,"Retrieval",NA,NA,NA,"10"
"916","P1",1,"RetGoals_V1","2022.2.4",8,6,0,NA,NA,"Retrieval",NA,NA,NA,"10"
"917","P1",1,"RetGoals_V1","2022.2.4",8,7,1,2,0.281570502,"Retrieval",NA,NA,NA,"10"
"918","P1",1,"RetGoals_V1","2022.2.4",8,8,0,3,0.316453301,"Retrieval",NA,NA,NA,"10"
"919","P1",1,"RetGoals_V1","2022.2.4",8,9,1,2,0.380698501,"Retrieval",NA,NA,NA,"10"
"920","P1",1,"RetGoals_V1","2022.2.4",8,10,1,2,0.250760005,"Retrieval",NA,NA,NA,"10"
"921","P1",1,"RetGoals_V1","2022.2.4",9,1,1,3,0.702629062,"External",0,6,NA,"10"
"922","P1",1,"RetGoals_V1","2022.2.4",9,2,1,2,1.246716246,"External",1,7,NA,"10"
"923","P1",1,"RetGoals_V1","2022.2.4",9,3,0,NA,NA,"External",1,7,NA,"10"
"924","P1",1,"RetGoals_V1","2022.2.4",9,4,1,4,0.489013577,"External",2,8,NA,"10"
"925","P1",1,"RetGoals_V1","2022.2.4",9,5,1,2,0.92159936,"External",2,8,NA,"10"
"926","P1",1,"RetGoals_V1","2022.2.4",9,6,1,3,0.400920024,"External",0,5,NA,"10"
"927","P1",1,"RetGoals_V1","2022.2.4",9,7,1,2,1.182291973,"External",2,7,NA,"10"
"928","P1",1,"RetGoals_V1","2022.2.4",9,8,0,4,0.779205269,"External",1,7,NA,"10"
"929","P1",1,"RetGoals_V1","2022.2.4",9,9,1,4,0.456850247,"External",1,6,NA,"10"
"930","P1",1,"RetGoals_V1","2022.2.4",9,10,1,3,0.922843784,"External",0,6,NA,"10"
"931","P1",1,"RetGoals_V1","2022.2.4",9,1,1,4,0.690256471,"Encoding",NA,NA,NA,"10"
"932","P1",1,"RetGoals_V1","2022.2.4",9,2,1,4,0.539234578,"Encoding",NA,NA,NA,"10"
"933","P1",1,"RetGoals_V1","2022.2.4",9,3,1,4,0.602560556,"Encoding",NA,NA,NA,"10"
"934","P1",1,"RetGoals_V1","2022.2.4",9,4,1,3,0.420481712,"Encoding",NA,NA,NA,"10"
"935","P1",1,"RetGoals_V1","2022.2.4",9,5,1,2,0.917581528,"Encoding",NA,NA,NA,"10"
"936","P1",1,"RetGoals_V1","2022.2.4",9,6,1,4,1.203818503,"Encoding",NA,NA,NA,"10"
"937","P1",1,"RetGoals_V1","2022.2.4",9,7,1,2,1.003960263,"Encoding",NA,NA,NA,"10"
"938","P1",1,"RetGoals_V1","2022.2.4",9,8,1,3,0.660943652,"Encoding",NA,NA,NA,"10"
"939","P1",1,"RetGoals_V1","2022.2.4",9,9,1,3,0.380424622,"Encoding",NA,NA,NA,"10"
"940","P1",1,"RetGoals_V1","2022.2.4",9,10,1,4,0.509589106,"Encoding",NA,NA,NA,"10"
"941","P1",1,"RetGoals_V1","2022.2.4",9,1,0,NA,NA,"Internal",2,NA,0,"10"
"942","P1",1,"RetGoals_V1","2022.2.4",9,2,1,4,0.90233233,"Internal",6,NA,1,"10"
"943","P1",1,"RetGoals_V1","2022.2.4",9,3,1,4,0.518911363,"Internal",9,NA,1,"10"
"944","P1",1,"RetGoals_V1","2022.2.4",9,4,0,2,0.725531406,"Internal",0,NA,0,"10"
"945","P1",1,"RetGoals_V1","2022.2.4",9,5,0,NA,NA,"Internal",1,NA,0,"10"
"946","P1",1,"RetGoals_V1","2022.2.4",9,6,0,2,0.222248902,"Internal",2,NA,0,"10"
"947","P1",1,"RetGoals_V1","2022.2.4",9,7,0,4,0.914244253,"Internal",0,NA,0,"10"
"948","P1",1,"RetGoals_V1","2022.2.4",9,8,0,NA,NA,"Internal",4,NA,2,"10"
"949","P1",1,"RetGoals_V1","2022.2.4",9,9,1,3,0.554462068,"Internal",0,NA,0,"10"
"950","P1",1,"RetGoals_V1","2022.2.4",9,10,1,2,0.592090109,"Internal",2,NA,0,"10"
"951","P1",1,"RetGoals_V1","2022.2.4",9,1,0,3,0.399978497,"Retrieval",NA,NA,NA,"10"
"952","P1",1,"RetGoals_V1","2022.2.4",9,2,1,2,0.283700934,"Retrieval",NA,NA,NA,"10"
"953","P1",1,"RetGoals_V1","2022.2.4",9,3,1,4,0.284937414,"Retrieval",NA,NA,NA,"10"
"954","P1",1,"RetGoals_V1","2022.2.4",9,4,1,4,1.214566944,"Retrieval",NA,NA,NA,"10"
"955","P1",1,"RetGoals_V1","2022.2.4",9,5,1,4,0.314694703,"Retrieval",NA,NA,NA,"10"
"956","P1",1,"RetGoals_V1","2022.2.4",9,6,1,4,0.323474776,"Retrieval",NA,NA,NA,"10"
"957","P1",1,"RetGoals_V1","2022.2.4",9,7,1,4,0.268844866,"Retrieval",NA,NA,NA,"10"
"958","P1",1,"RetGoals_V1","2022.2.4",9,8,1,2,0.269746893,"Retrieval",NA,NA,NA,"10"
"959","P1",1,"RetGoals_V1","2022.2.4",9,9,0,1,0.576269409,"Retrieval",NA,NA,NA,"10"
"960","P1",1,"RetGoals_V1","2022.2.4",9,10,1,2,0.26981576,"Retrieval",NA,NA,NA,"10"
"961","P1",1,"RetGoals_V1","2022.2.4",10,1,0,2,0.833680545,"External",0,7,NA,"10"
"962","P1",1,"RetGoals_V1","2022.2.4",10,2,0,2,0.339013482,"External",0,8,NA,"10"
"963","P1",1,"RetGoals_V1","2022.2.4",10,3,1,4,0.282222224,"External",2,7,NA,"10"
"964","P1",1,"RetGoals_V1","2022.2.4",10,4,0,3,0.89168638,"External",2,7,NA,"10"
"965","P1",1,"RetGoals_V1","2022.2.4",10,5,1,2,0.333761747,"External",1,6,NA,"10"
"966","P1",1,"RetGoals_V1","2022.2.4",10,6,1,3,0.973318797,"External",0,7,NA,"10"
"967","P1",1,"RetGoals_V1","2022.2.4",10,7,1,2,0.458492742,"External",2,7,NA,"10"
"968","P1",1,"RetGoals_V1","2022.2.4",10,8,1,2,0.437690416,"External",1,8,NA,"10"
"969","P1",1,"RetGoals_V1","2022.2.4",10,9,0,3,0.641291707,"External",2,8,NA,"10"
"970","P1",1,"RetGoals_V1","2022.2.4",10,10,1,4,0.323633415,"External",2,7,NA,"10"
"971","P1",1,"RetGoals_V1","2022.2.4",10,1,1,3,0.587818753,"Encoding",NA,NA,NA,"10"
"972","P1",1,"RetGoals_V1","2022.2.4",10,2,1,4,0.308207043,"Encoding",NA,NA,NA,"10"
"973","P1",1,"RetGoals_V1","2022.2.4",10,3,1,3,1.292428965,"Encoding",NA,NA,NA,"10"
"974","P1",1,"RetGoals_V1","2022.2.4",10,4,1,3,0.980702394,"Encoding",NA,NA,NA,"10"
"975","P1",1,"RetGoals_V1","2022.2.4",10,5,1,3,0.614071065,"Encoding",NA,NA,NA,"10"
"976","P1",1,"RetGoals_V1","2022.2.4",10,6,1,4,0.644532186,"Encoding",NA,NA,NA,"10"
"977","P1",1,"RetGoals_V1","2022.2.4",10,7,1,2,0.725262807,"Encoding",NA,NA,NA,"10"
"978","P1",1,"RetGoals_V1","2022.2.4",10,8,1,2,0.718839864,"Encoding",NA,NA,NA,"10"
"979","P1",1,"RetGoals_V1","2022.2.4",10,9,1,4,0.48665219,"Encoding",NA,NA,NA,"10"
"980","P1",1,"RetGoals_V1","2022.2.4",10,10,1,4,1.399057268,"Encoding",NA,NA,NA,"10"
"981","P1",1,"RetGoals_V1","2022.2.4",10,1,1,3,1.358114612,"Internal",0,NA,0,"10"
"982","P1",1,"RetGoals_V1","2022.2.4",10,2,1,4,1.117660747,"Internal",5,NA,0,"10"
"983","P1",1,"RetGoals_V1","2022.2.4",10,3,0,4,0.892087316,"Internal",0,NA,0,"10"
"984","P1",1,"RetGoals_V1","2022.2.4",10,4,0,NA,NA,"Internal",2,NA,2,"10"
"985","P1",1,"RetGoals_V1","2022.2.4",10,5,1,2,1.260711495,"Internal",2,NA,0,"10"
"986","P1",1,"RetGoals_V1","2022.2.4",10,6,1,4,0.752069878,"Internal",4,NA,0,"10"
"987","P1",1,"RetGoals_V1","2022.2.4",10,7,0,4,0.685945829,"Internal",0,NA,0,"10"
"988","P1",1,"RetGoals_V1","2022.2.4",10,8,0,3,0.725585113,"Internal",2,NA,0,"10"
"989","P1",1,"RetGoals_V1","2022.2.4",10,9,0,3,1.206422103,"Internal",3,NA,0,"10"
"990","P1",1,"RetGoals_V1","2022.2.4",10,10,0,NA,NA,"Internal",1,NA,0,"10"
"991","P1",1,"RetGoals_V1","2022.2.4",10,1,0,3,1.322115858,"Retrieval",NA,NA,NA,"10"
"992","P1",1,"RetGoals_V1","2022.2.4",10,2,1,2,0.329053523,"Retrieval",NA,NA,NA,"10"
"993","P1",1,"RetGoals_V1","2022.2.4",10,3,1,2,0.424997234,"Retrieval",NA,NA,NA,"10"
"994","P1",1,"RetGoals_V1","2022.2.4",10,4,1,4,0.316386912,"Retrieval",NA,NA,NA,"10"
"995","P1",1,"RetGoals_V1","2022.2.4",10,5,0,4,0.317774704,"Retrieval",NA,NA,NA,"10"
"996","P1",1,"RetGoals_V1","2022.2.4",10,6,1,3,0.318549494,"Retrieval",NA,NA,NA,"10"
"997","P1",1,"RetGoals_V1","2022.2.4",10,7,0,3,0.285636171,"Retrieval",NA,NA,NA,"10"
"998","P1",1,"RetGoals_V1","2022.2.4",10,8,1,3,0.232340048,"Retrieval",NA,NA,NA,"10"
"999","P1",1,"RetGoals_V1","2022.2.4",10,9,1,2,0.259621517,"Retrieval",NA,NA,NA,"10"
"1000","P1",1,"RetGoals_V1","2022.2.4",10,10,1,4,0.310737565,"Retrieval",NA,NA,NA,"10"
"1001","P2",1,"RetGoals_V1","2022.2.4",1,1,0,3,0.601150835998851,"External",2,7,NA,"40"
"1002","P2",1,"RetGoals_V1","2022.2.4",1,2,0,NA,NA,"External",0,8,NA,"40"
"1003","P2",1,"RetGoals_V1","2022.2.4",1,3,1,2,1.09181017999799,"External",2,8,NA,"40"
"1004","P2",1,"RetGoals_V1","2022.2.4",1,4,0,NA,NA,"External",2,7,NA,"40"
"1005","P2",1,"RetGoals_V1","2022.2.4",1,5,0,2,0.566477029999078,"External",0,8,NA,"40"
"1006","P2",1,"RetGoals_V1","2022.2.4",1,6,0,2,0.451847978001751,"External",2,8,NA,"40"
"1007","P2",1,"RetGoals_V1","2022.2.4",1,7,0,3,0.774206320002122,"External",2,8,NA,"40"
"1008","P2",1,"RetGoals_V1","2022.2.4",1,8,0,4,1.33209494300172,"External",0,5,NA,"40"
"1009","P2",1,"RetGoals_V1","2022.2.4",1,9,0,3,0.65858548200049,"External",2,8,NA,"40"
"1010","P2",1,"RetGoals_V1","2022.2.4",1,10,1,2,0.38926432000153,"External",2,8,NA,"40"
"1011","P2",1,"RetGoals_V1","2022.2.4",1,11,0,4,0.458452525999746,"External",0,7,NA,"40"
"1012","P2",1,"RetGoals_V1","2022.2.4",1,12,1,3,0.397460862001026,"External",0,5,NA,"40"
"1013","P2",1,"RetGoals_V1","2022.2.4",1,13,1,4,0.498469142999966,"External",1,7,NA,"40"
"1014","P2",1,"RetGoals_V1","2022.2.4",1,14,0,4,0.924581606999709,"External",0,5,NA,"40"
"1015","P2",1,"RetGoals_V1","2022.2.4",1,15,1,4,0.739178383999388,"External",1,6,NA,"40"
"1016","P2",1,"RetGoals_V1","2022.2.4",1,16,0,3,0.314820349998627,"External",2,8,NA,"40"
"1017","P2",1,"RetGoals_V1","2022.2.4",1,17,1,4,0.778719588997774,"External",1,8,NA,"40"
"1018","P2",1,"RetGoals_V1","2022.2.4",1,18,1,4,0.920119753001927,"External",1,6,NA,"40"
"1019","P2",1,"RetGoals_V1","2022.2.4",1,19,1,3,1.29613397100184,"External",0,8,NA,"40"
"1020","P2",1,"RetGoals_V1","2022.2.4",1,20,0,3,0.617216656002711,"External",1,8,NA,"40"
"1021","P2",1,"RetGoals_V1","2022.2.4",1,21,1,4,0.413772210999014,"External",1,6,NA,"40"
"1022","P2",1,"RetGoals_V1","2022.2.4",1,22,1,2,0.568742948998988,"External",2,7,NA,"40"
"1023","P2",1,"RetGoals_V1","2022.2.4",1,23,1,4,0.568281220999779,"External",1,7,NA,"40"
"1024","P2",1,"RetGoals_V1","2022.2.4",1,24,1,4,0.781877802000963,"External",2,8,NA,"40"
"1025","P2",1,"RetGoals_V1","2022.2.4",1,25,1,3,0.643645898999239,"External",0,6,NA,"40"
"1026","P2",1,"RetGoals_V1","2022.2.4",1,26,0,3,0.573027978000027,"External",1,7,NA,"40"
"1027","P2",1,"RetGoals_V1","2022.2.4",1,27,0,4,0.947967116000655,"External",0,7,NA,"40"
"1028","P2",1,"RetGoals_V1","2022.2.4",1,28,0,4,0.521948250003334,"External",2,8,NA,"40"
"1029","P2",1,"RetGoals_V1","2022.2.4",1,29,0,2,0.794114411000919,"External",0,8,NA,"40"
"1030","P2",1,"RetGoals_V1","2022.2.4",1,30,1,2,0.943734962002054,"External",2,8,NA,"40"
"1031","P2",1,"RetGoals_V1","2022.2.4",1,31,1,4,0.422582358001819,"External",1,7,NA,"40"
"1032","P2",1,"RetGoals_V1","2022.2.4",1,32,1,4,0.601785840000957,"External",1,6,NA,"40"
"1033","P2",1,"RetGoals_V1","2022.2.4",1,33,1,3,1.12006516899783,"External",0,6,NA,"40"
"1034","P2",1,"RetGoals_V1","2022.2.4",1,34,0,NA,NA,"External",2,7,NA,"40"
"1035","P2",1,"RetGoals_V1","2022.2.4",1,35,1,2,0.149788508999336,"External",1,6,NA,"40"
"1036","P2",1,"RetGoals_V1","2022.2.4",1,36,1,4,0.718179412997415,"External",2,8,NA,"40"
"1037","P2",1,"RetGoals_V1","2022.2.4",1,37,0,2,0.59746347699911,"External",1,7,NA,"40"
"1038","P2",1,"RetGoals_V1","2022.2.4",1,38,1,2,0.364357357000699,"External",1,6,NA,"40"
"1039","P2",1,"RetGoals_V1","2022.2.4",1,39,1,2,0.6500204820004,"External",1,8,NA,"40"
"1040","P2",1,"RetGoals_V1","2022.2.4",1,40,1,4,0.324651722003182,"External",2,8,NA,"40"
"1041","P2",1,"RetGoals_V1","2022.2.4",1,1,1,3,0.852228438001475,"Encoding",NA,NA,NA,"40"
"1042","P2",1,"RetGoals_V1","2022.2.4",1,2,0,NA,NA,"Encoding",NA,NA,NA,"40"
"1043","P2",1,"RetGoals_V1","2022.2.4",1,3,1,3,0.492873692001012,"Encoding",NA,NA,NA,"40"
"1044","P2",1,"RetGoals_V1","2022.2.4",1,4,1,3,0.580724802999612,"Encoding",NA,NA,NA,"40"
"1045","P2",1,"RetGoals_V1","2022.2.4",1,5,1,3,0.693947146999562,"Encoding",NA,NA,NA,"40"
"1046","P2",1,"RetGoals_V1","2022.2.4",1,6,1,3,0.509834923999733,"Encoding",NA,NA,NA,"40"
"1047","P2",1,"RetGoals_V1","2022.2.4",1,7,1,4,0.549884667001606,"Encoding",NA,NA,NA,"40"
"1048","P2",1,"RetGoals_V1","2022.2.4",1,8,1,2,0.677790850000747,"Encoding",NA,NA,NA,"40"
"1049","P2",1,"RetGoals_V1","2022.2.4",1,9,1,4,0.471756380000443,"Encoding",NA,NA,NA,"40"
"1050","P2",1,"RetGoals_V1","2022.2.4",1,10,1,4,0.526966609999363,"Encoding",NA,NA,NA,"40"
"1051","P2",1,"RetGoals_V1","2022.2.4",1,11,1,3,0.464310993000254,"Encoding",NA,NA,NA,"40"
"1052","P2",1,"RetGoals_V1","2022.2.4",1,12,1,2,0.48791494300167,"Encoding",NA,NA,NA,"40"
"1053","P2",1,"RetGoals_V1","2022.2.4",1,13,1,2,0.471070731000509,"Encoding",NA,NA,NA,"40"
"1054","P2",1,"RetGoals_V1","2022.2.4",1,14,1,4,0.633370141000341,"Encoding",NA,NA,NA,"40"
"1055","P2",1,"RetGoals_V1","2022.2.4",1,15,1,3,0.472030708999227,"Encoding",NA,NA,NA,"40"
"1056","P2",1,"RetGoals_V1","2022.2.4",1,16,1,4,0.465254533999541,"Encoding",NA,NA,NA,"40"
"1057","P2",1,"RetGoals_V1","2022.2.4",1,17,1,4,0.456888278000406,"Encoding",NA,NA,NA,"40"
"1058","P2",1,"RetGoals_V1","2022.2.4",1,18,1,2,0.769863058001647,"Encoding",NA,NA,NA,"40"
"1059","P2",1,"RetGoals_V1","2022.2.4",1,19,1,4,0.514604919000703,"Encoding",NA,NA,NA,"40"
"1060","P2",1,"RetGoals_V1","2022.2.4",1,20,1,2,0.482996876002289,"Encoding",NA,NA,NA,"40"
"1061","P2",1,"RetGoals_V1","2022.2.4",1,21,1,3,0.553830672997719,"Encoding",NA,NA,NA,"40"
"1062","P2",1,"RetGoals_V1","2022.2.4",1,22,1,4,0.52230319100272,"Encoding",NA,NA,NA,"40"
"1063","P2",1,"RetGoals_V1","2022.2.4",1,23,1,4,0.595404170999245,"Encoding",NA,NA,NA,"40"
"1064","P2",1,"RetGoals_V1","2022.2.4",1,24,1,3,0.499127058003069,"Encoding",NA,NA,NA,"40"
"1065","P2",1,"RetGoals_V1","2022.2.4",1,25,1,4,0.395402105001267,"Encoding",NA,NA,NA,"40"
"1066","P2",1,"RetGoals_V1","2022.2.4",1,26,1,2,0.476132829000562,"Encoding",NA,NA,NA,"40"
"1067","P2",1,"RetGoals_V1","2022.2.4",1,27,1,3,0.444026984001539,"Encoding",NA,NA,NA,"40"
"1068","P2",1,"RetGoals_V1","2022.2.4",1,28,1,2,0.429155760000867,"Encoding",NA,NA,NA,"40"
"1069","P2",1,"RetGoals_V1","2022.2.4",1,29,1,2,0.460391862001416,"Encoding",NA,NA,NA,"40"
"1070","P2",1,"RetGoals_V1","2022.2.4",1,30,1,3,0.988358234000771,"Encoding",NA,NA,NA,"40"
"1071","P2",1,"RetGoals_V1","2022.2.4",1,31,1,3,0.73338731900003,"Encoding",NA,NA,NA,"40"
"1072","P2",1,"RetGoals_V1","2022.2.4",1,32,1,3,0.198259353001049,"Encoding",NA,NA,NA,"40"
"1073","P2",1,"RetGoals_V1","2022.2.4",1,33,0,NA,NA,"Encoding",NA,NA,NA,"40"
"1074","P2",1,"RetGoals_V1","2022.2.4",1,34,1,4,0.0936937590013258,"Encoding",NA,NA,NA,"40"
"1075","P2",1,"RetGoals_V1","2022.2.4",1,35,1,2,1.41557296100291,"Encoding",NA,NA,NA,"40"
"1076","P2",1,"RetGoals_V1","2022.2.4",1,36,1,4,0.599461026999052,"Encoding",NA,NA,NA,"40"
"1077","P2",1,"RetGoals_V1","2022.2.4",1,37,1,2,0.318155494001985,"Encoding",NA,NA,NA,"40"
"1078","P2",1,"RetGoals_V1","2022.2.4",1,38,1,2,0.494724183998187,"Encoding",NA,NA,NA,"40"
"1079","P2",1,"RetGoals_V1","2022.2.4",1,39,1,2,0.671035841998673,"Encoding",NA,NA,NA,"40"
"1080","P2",1,"RetGoals_V1","2022.2.4",1,40,1,2,0.76050223600032,"Encoding",NA,NA,NA,"40"
"1081","P2",1,"RetGoals_V1","2022.2.4",1,1,0,NA,NA,"Internal",7,NA,1,"40"
"1082","P2",1,"RetGoals_V1","2022.2.4",1,2,1,4,1.02436760799901,"Internal",3,NA,0,"40"
"1083","P2",1,"RetGoals_V1","2022.2.4",1,3,0,NA,NA,"Internal",1,NA,0,"40"
"1084","P2",1,"RetGoals_V1","2022.2.4",1,4,1,3,0.723754847000237,"Internal",0,NA,0,"40"
"1085","P2",1,"RetGoals_V1","2022.2.4",1,5,0,2,0.717011888002162,"Internal",0,NA,0,"40"
"1086","P2",1,"RetGoals_V1","2022.2.4",1,6,0,NA,NA,"Internal",0,NA,0,"40"
"1087","P2",1,"RetGoals_V1","2022.2.4",1,7,0,4,1.09972033400118,"Internal",0,NA,0,"40"
"1088","P2",1,"RetGoals_V1","2022.2.4",1,8,1,4,0.612793248001253,"Internal",4,NA,0,"40"
"1089","P2",1,"RetGoals_V1","2022.2.4",1,9,1,4,1.37617314700037,"Internal",1,NA,0,"40"
"1090","P2",1,"RetGoals_V1","2022.2.4",1,10,1,3,0.91861576500014,"Internal",0,NA,0,"40"
"1091","P2",1,"RetGoals_V1","2022.2.4",1,11,1,2,0.334625557999971,"Internal",7,NA,1,"40"
"1092","P2",1,"RetGoals_V1","2022.2.4",1,12,1,4,0.0617382240016013,"Internal",5,NA,0,"40"
"1093","P2",1,"RetGoals_V1","2022.2.4",1,13,1,2,0.368381686002976,"Internal",9,NA,0,"40"
"1094","P2",1,"RetGoals_V1","2022.2.4",1,14,1,2,0.863120390000404,"Internal",1,NA,0,"40"
"1095","P2",1,"RetGoals_V1","2022.2.4",1,15,1,4,0.936838417001127,"Internal",5,NA,0,"40"
"1096","P2",1,"RetGoals_V1","2022.2.4",1,16,1,4,0.902630978998786,"Internal",1,NA,0,"40"
"1097","P2",1,"RetGoals_V1","2022.2.4",1,17,1,3,0.384244073000445,"Internal",0,NA,0,"40"
"1098","P2",1,"RetGoals_V1","2022.2.4",1,18,1,2,0.252921183997387,"Internal",9,NA,1,"40"
"1099","P2",1,"RetGoals_V1","2022.2.4",1,19,1,4,0.911455056000705,"Internal",1,NA,0,"40"
"1100","P2",1,"RetGoals_V1","2022.2.4",1,20,1,4,0.159315468001296,"Internal",2,NA,0,"40"
"1101","P2",1,"RetGoals_V1","2022.2.4",1,21,0,2,0.902381337000406,"Internal",0,NA,0,"40"
"1102","P2",1,"RetGoals_V1","2022.2.4",1,22,0,4,0.216749943003379,"Internal",0,NA,0,"40"
"1103","P2",1,"RetGoals_V1","2022.2.4",1,23,0,4,1.30081852300282,"Internal",0,NA,0,"40"
"1104","P2",1,"RetGoals_V1","2022.2.4",1,24,1,3,0.500668835000397,"Internal",0,NA,0,"40"
"1105","P2",1,"RetGoals_V1","2022.2.4",1,25,1,2,1.06090119300279,"Internal",1,NA,0,"40"
"1106","P2",1,"RetGoals_V1","2022.2.4",1,26,1,2,0.463260466000065,"Internal",6,NA,0,"40"
"1107","P2",1,"RetGoals_V1","2022.2.4",1,27,0,NA,NA,"Internal",0,NA,2,"40"
"1108","P2",1,"RetGoals_V1","2022.2.4",1,28,1,2,0.0585773389975657,"Internal",4,NA,0,"40"
"1109","P2",1,"RetGoals_V1","2022.2.4",1,29,1,3,0.892661754998699,"Internal",0,NA,0,"40"
"1110","P2",1,"RetGoals_V1","2022.2.4",1,30,1,4,0.518584829998872,"Internal",12,NA,1,"40"
"1111","P2",1,"RetGoals_V1","2022.2.4",1,31,0,NA,NA,"Internal",2,NA,0,"40"
"1112","P2",1,"RetGoals_V1","2022.2.4",1,32,0,NA,NA,"Internal",0,NA,0,"40"
"1113","P2",1,"RetGoals_V1","2022.2.4",1,33,1,4,1.33432579900182,"Internal",2,NA,0,"40"
"1114","P2",1,"RetGoals_V1","2022.2.4",1,34,1,4,0.589504284998839,"Internal",1,NA,0,"40"
"1115","P2",1,"RetGoals_V1","2022.2.4",1,35,0,4,0.331352426001104,"Internal",0,NA,0,"40"
"1116","P2",1,"RetGoals_V1","2022.2.4",1,36,0,NA,NA,"Internal",1,NA,0,"40"
"1117","P2",1,"RetGoals_V1","2022.2.4",1,37,0,NA,NA,"Internal",6,NA,0,"40"
"1118","P2",1,"RetGoals_V1","2022.2.4",1,38,1,2,0.867060275999393,"Internal",1,NA,0,"40"
"1119","P2",1,"RetGoals_V1","2022.2.4",1,39,0,2,0.52507109599901,"Internal",0,NA,0,"40"
"1120","P2",1,"RetGoals_V1","2022.2.4",1,40,1,4,1.10064777200023,"Internal",3,NA,0,"40"
"1121","P2",1,"RetGoals_V1","2022.2.4",1,1,0,NA,NA,"Retrieval",NA,NA,NA,"40"
"1122","P2",1,"RetGoals_V1","2022.2.4",1,2,0,NA,NA,"Retrieval",NA,NA,NA,"40"
"1123","P2",1,"RetGoals_V1","2022.2.4",1,3,0,3,0.934629612002027,"Retrieval",NA,NA,NA,"40"
"1124","P2",1,"RetGoals_V1","2022.2.4",1,4,0,2,0.989342008000676,"Retrieval",NA,NA,NA,"40"
"1125","P2",1,"RetGoals_V1","2022.2.4",1,5,0,1,0.849455307001335,"Retrieval",NA,NA,NA,"40"
"1126","P2",1,"RetGoals_V1","2022.2.4",1,6,0,1,0.460424228000193,"Retrieval",NA,NA,NA,"40"
"1127","P2",1,"RetGoals_V1","2022.2.4",1,7,0,4,0.910989063999296,"Retrieval",NA,NA,NA,"40"
"1128","P2",1,"RetGoals_V1","2022.2.4",1,8,0,1,0.702641383999435,"Retrieval",NA,NA,NA,"40"
"1129","P2",1,"RetGoals_V1","2022.2.4",1,9,0,1,1.37496517800173,"Retrieval",NA,NA,NA,"40"
"1130","P2",1,"RetGoals_V1","2022.2.4",1,10,0,NA,NA,"Retrieval",NA,NA,NA,"40"
"1131","P2",1,"RetGoals_V1","2022.2.4",1,11,0,3,0.684322450000764,"Retrieval",NA,NA,NA,"40"
"1132","P2",1,"RetGoals_V1","2022.2.4",1,12,0,3,0.59831918999771,"Retrieval",NA,NA,NA,"40"
"1133","P2",1,"RetGoals_V1","2022.2.4",1,13,0,1,0.835560982999596,"Retrieval",NA,NA,NA,"40"
"1134","P2",1,"RetGoals_V1","2022.2.4",1,14,0,4,1.22197339100239,"Retrieval",NA,NA,NA,"40"
"1135","P2",1,"RetGoals_V1","2022.2.4",1,15,0,2,0.777134801999637,"Retrieval",NA,NA,NA,"40"
"1136","P2",1,"RetGoals_V1","2022.2.4",1,16,0,1,0.494475505998707,"Retrieval",NA,NA,NA,"40"
"1137","P2",1,"RetGoals_V1","2022.2.4",1,17,0,2,1.17584209300185,"Retrieval",NA,NA,NA,"40"
"1138","P2",1,"RetGoals_V1","2022.2.4",1,18,1,4,1.05292008999822,"Retrieval",NA,NA,NA,"40"
"1139","P2",1,"RetGoals_V1","2022.2.4",1,19,0,1,0.535561151998991,"Retrieval",NA,NA,NA,"40"
"1140","P2",1,"RetGoals_V1","2022.2.4",1,20,0,4,0.750628252000752,"Retrieval",NA,NA,NA,"40"
"1141","P2",1,"RetGoals_V1","2022.2.4",1,21,0,2,0.64452846399945,"Retrieval",NA,NA,NA,"40"
"1142","P2",1,"RetGoals_V1","2022.2.4",1,22,0,1,0.655795874001342,"Retrieval",NA,NA,NA,"40"
"1143","P2",1,"RetGoals_V1","2022.2.4",1,23,0,3,1.26797548300237,"Retrieval",NA,NA,NA,"40"
"1144","P2",1,"RetGoals_V1","2022.2.4",1,24,0,4,1.23602460199982,"Retrieval",NA,NA,NA,"40"
"1145","P2",1,"RetGoals_V1","2022.2.4",1,25,0,1,0.510767989999295,"Retrieval",NA,NA,NA,"40"
"1146","P2",1,"RetGoals_V1","2022.2.4",1,26,0,1,0.43147172099998,"Retrieval",NA,NA,NA,"40"
"1147","P2",1,"RetGoals_V1","2022.2.4",1,27,0,1,0.658538528998179,"Retrieval",NA,NA,NA,"40"
"1148","P2",1,"RetGoals_V1","2022.2.4",1,28,0,2,0.974592377002409,"Retrieval",NA,NA,NA,"40"
"1149","P2",1,"RetGoals_V1","2022.2.4",1,29,0,4,0.938466092000454,"Retrieval",NA,NA,NA,"40"
"1150","P2",1,"RetGoals_V1","2022.2.4",1,30,0,4,0.521092643000884,"Retrieval",NA,NA,NA,"40"
"1151","P2",1,"RetGoals_V1","2022.2.4",1,31,0,4,1.28999687800024,"Retrieval",NA,NA,NA,"40"
"1152","P2",1,"RetGoals_V1","2022.2.4",1,32,0,1,0.706149287001608,"Retrieval",NA,NA,NA,"40"
"1153","P2",1,"RetGoals_V1","2022.2.4",1,33,0,1,0.337705406996974,"Retrieval",NA,NA,NA,"40"
"1154","P2",1,"RetGoals_V1","2022.2.4",1,34,0,1,0.673955359001411,"Retrieval",NA,NA,NA,"40"
"1155","P2",1,"RetGoals_V1","2022.2.4",1,35,0,NA,NA,"Retrieval",NA,NA,NA,"40"
"1156","P2",1,"RetGoals_V1","2022.2.4",1,36,0,1,1.05903864300126,"Retrieval",NA,NA,NA,"40"
"1157","P2",1,"RetGoals_V1","2022.2.4",1,37,0,1,0.566643647998717,"Retrieval",NA,NA,NA,"40"
"1158","P2",1,"RetGoals_V1","2022.2.4",1,38,0,NA,NA,"Retrieval",NA,NA,NA,"40"
"1159","P2",1,"RetGoals_V1","2022.2.4",1,39,0,4,0.819324694999523,"Retrieval",NA,NA,NA,"40"
"1160","P2",1,"RetGoals_V1","2022.2.4",1,40,0,1,0.351779331002035,"Retrieval",NA,NA,NA,"40"
"1161","P2",1,"RetGoals_V1","2022.2.4",2,1,0,1,1.27890941000078,"External",0,8,NA,"40"
"1162","P2",1,"RetGoals_V1","2022.2.4",2,2,1,4,0.768630484999449,"External",2,7,NA,"40"
"1163","P2",1,"RetGoals_V1","2022.2.4",2,3,1,2,0.421531291001884,"External",1,6,NA,"40"
"1164","P2",1,"RetGoals_V1","2022.2.4",2,4,0,2,0.785689339001692,"External",0,8,NA,"40"
"1165","P2",1,"RetGoals_V1","2022.2.4",2,5,1,4,0.582431211998482,"External",1,6,NA,"40"
"1166","P2",1,"RetGoals_V1","2022.2.4",2,6,1,4,0.476304613999673,"External",1,6,NA,"40"
"1167","P2",1,"RetGoals_V1","2022.2.4",2,7,1,2,0.566585883003427,"External",2,7,NA,"40"
"1168","P2",1,"RetGoals_V1","2022.2.4",2,8,0,2,0.917527105000772,"External",0,8,NA,"40"
"1169","P2",1,"RetGoals_V1","2022.2.4",2,9,1,4,0.468513367999549,"External",2,7,NA,"40"
"1170","P2",1,"RetGoals_V1","2022.2.4",2,10,1,3,0.590885259000061,"External",0,5,NA,"40"
"1171","P2",1,"RetGoals_V1","2022.2.4",2,11,0,3,0.39707851500134,"External",2,7,NA,"40"
"1172","P2",1,"RetGoals_V1","2022.2.4",2,12,1,3,0.7862510820014,"External",0,7,NA,"40"
"1173","P2",1,"RetGoals_V1","2022.2.4",2,13,1,4,0.486047755999607,"External",2,7,NA,"40"
"1174","P2",1,"RetGoals_V1","2022.2.4",2,14,0,NA,NA,"External",2,7,NA,"40"
"1175","P2",1,"RetGoals_V1","2022.2.4",2,15,0,3,0.455063969002367,"External",1,8,NA,"40"
"1176","P2",1,"RetGoals_V1","2022.2.4",2,16,1,3,0.577878318999865,"External",0,8,NA,"40"
"1177","P2",1,"RetGoals_V1","2022.2.4",2,17,0,2,0.617865943000652,"External",0,6,NA,"40"
"1178","P2",1,"RetGoals_V1","2022.2.4",2,18,1,2,0.660551453001972,"External",2,7,NA,"40"
"1179","P2",1,"RetGoals_V1","2022.2.4",2,19,0,2,0.406747272001667,"External",0,8,NA,"40"
"1180","P2",1,"RetGoals_V1","2022.2.4",2,20,1,2,0.468387428001733,"External",1,6,NA,"40"
"1181","P2",1,"RetGoals_V1","2022.2.4",2,21,0,3,1.039278663,"External",2,8,NA,"40"
"1182","P2",1,"RetGoals_V1","2022.2.4",2,22,0,3,0.640341589001764,"External",1,7,NA,"40"
"1183","P2",1,"RetGoals_V1","2022.2.4",2,23,0,3,0.594848847998946,"External",2,8,NA,"40"
"1184","P2",1,"RetGoals_V1","2022.2.4",2,24,0,4,0.551874861997931,"External",0,7,NA,"40"
"1185","P2",1,"RetGoals_V1","2022.2.4",2,25,0,4,0.390138579998165,"External",0,5,NA,"40"
"1186","P2",1,"RetGoals_V1","2022.2.4",2,26,0,4,0.595990514000732,"External",0,7,NA,"40"
"1187","P2",1,"RetGoals_V1","2022.2.4",2,27,0,2,0.856996754999273,"External",1,6,NA,"40"
"1188","P2",1,"RetGoals_V1","2022.2.4",2,28,1,3,0.932188049002434,"External",0,7,NA,"40"
"1189","P2",1,"RetGoals_V1","2022.2.4",2,29,0,2,0.658524862999911,"External",0,8,NA,"40"
"1190","P2",1,"RetGoals_V1","2022.2.4",2,30,1,2,0.669777107999835,"External",1,7,NA,"40"
"1191","P2",1,"RetGoals_V1","2022.2.4",2,31,0,2,0.774752443001489,"External",0,8,NA,"40"
"1192","P2",1,"RetGoals_V1","2022.2.4",2,32,1,4,0.732815880000999,"External",2,8,NA,"40"
"1193","P2",1,"RetGoals_V1","2022.2.4",2,33,0,3,1.01314768500015,"External",1,7,NA,"40"
"1194","P2",1,"RetGoals_V1","2022.2.4",2,34,1,2,0.480973869998707,"External",2,7,NA,"40"
"1195","P2",1,"RetGoals_V1","2022.2.4",2,35,1,2,0.547121474002779,"External",1,6,NA,"40"
"1196","P2",1,"RetGoals_V1","2022.2.4",2,36,0,3,1.04111198300234,"External",2,8,NA,"40"
"1197","P2",1,"RetGoals_V1","2022.2.4",2,37,1,3,0.643735473000561,"External",0,8,NA,"40"
"1198","P2",1,"RetGoals_V1","2022.2.4",2,38,1,3,1.09534407200044,"External",0,7,NA,"40"
"1199","P2",1,"RetGoals_V1","2022.2.4",2,39,1,4,0.847809005997988,"External",2,7,NA,"40"
"1200","P2",1,"RetGoals_V1","2022.2.4",2,40,0,NA,NA,"External",1,6,NA,"40"
"1201","P2",1,"RetGoals_V1","2022.2.4",2,1,0,NA,NA,"Encoding",NA,NA,NA,"40"
"1202","P2",1,"RetGoals_V1","2022.2.4",2,2,1,3,0.39420479600085,"Encoding",NA,NA,NA,"40"
"1203","P2",1,"RetGoals_V1","2022.2.4",2,3,1,2,1.19458532200224,"Encoding",NA,NA,NA,"40"
"1204","P2",1,"RetGoals_V1","2022.2.4",2,4,1,4,0.900703709001391,"Encoding",NA,NA,NA,"40"
"1205","P2",1,"RetGoals_V1","2022.2.4",2,5,1,3,0.835626544998377,"Encoding",NA,NA,NA,"40"
"1206","P2",1,"RetGoals_V1","2022.2.4",2,6,1,2,0.58072244199866,"Encoding",NA,NA,NA,"40"
