EALoadLoop.thisRepN,EALoadLoop.thisTrialN,EALoadLoop.thisN,EALoadLoop.thisIndex,EncLoadLoop.thisRepN,EncLoadLoop.thisTrialN,EncLoadLoop.thisN,EncLoadLoop.thisIndex,IALoadLoop.thisRepN,IALoadLoop.thisTrialN,IALoadLoop.thisN,IALoadLoop.thisIndex,RetLoadLoop.thisRepN,RetLoadLoop.thisTrialN,RetLoadLoop.thisN,RetLoadLoop.thisIndex,EAPractice2Trials.thisRepN,EAPractice2Trials.thisTrialN,EAPractice2Trials.thisN,EAPractice2Trials.thisIndex,IAPractice2Trials.thisRepN,IAPractice2Trials.thisTrialN,IAPractice2Trials.thisN,IAPractice2Trials.thisIndex,EncPractice2Trials.thisRepN,EncPractice2Trials.thisTrialN,EncPractice2Trials.thisN,EncPractice2Trials.thisIndex,welcomeText.started,welcomeKey.started,welcomeKey.keys,welcomeKey.rt,welcomeText2.started,welcomeKey2.started,welcomeKey2.keys,welcomeKey2.rt,EAPracticeText1.started,EAPracticeText2.started,EAPracticeRespText.started,EAPracticeKey.started,EAPracticeKey.keys,EAPracticeKey.rt,EAPractice2Text.started,EAPractice2Key.started,EAPractice2Key.keys,EAPractice2Key.rt,corr_key,stim_name,magnitude,stim_spec,num_big,EAPractice1Text1.started,EAPractice1Stim.started,EAPractice1Resp.started,EAPractice1Text2.started,EAPractice1Resp.keys,EAPractice1Resp.corr,EAPractice1Resp.rt,EAPostPractice1Text.started,EAPostPractice1Resp.started,EAPostPractice1Resp.keys,EAPostPractice1Resp.rt,FixCross.started,EATrialText1.started,EATrialStim.started,EATrialText2.started,EATrialResp.started,EATrialResp.keys,EATrialResp.corr,EATrialResp.rt,EAPracticeEndText.started,EAPracticeEndKey.started,EAPracticeEndKey.keys,EAPracticeEndKey.rt,IAPracticeInstructions1Text1.started,IAPracticeInstructions1Text2.started,IAPracticeInstructions1RespText.started,IAPracticeInstructions1Resp.started,IAPracticeInstructions1Resp.keys,IAPracticeInstructions1Resp.rt,IAPracticeInstructions2Text.started,IAPracticeInstructions2Resp.started,IAPracticeInstructions2Resp.keys,IAPracticeInstructions2Resp.rt,has_neg,IAPractice1Stim.started,IAPractice1Resp.started,IAPractice1Text1.started,IAPractice1Resp.keys,IAPractice1Resp.corr,IAPractice1Resp.rt,IAPractice1Feedback.started,IAPostPractice1Resp.started,IAPostPractice1Resp.keys,IAPostPractice1Resp.rt,IATrialStim.started,IATrialRespText.started,IATrialResp.started,IATrialResp.keys,IATrialResp.corr,IATrialResp.rt,FixCross.stopped,IAPracticeEndText.started,IAPracticeEndResp.started,IAPracticeEndResp.keys,IAPracticeEndResp.rt,EncPracticeInstructionsText1.started,EncPracticeInstructionsText2.started,EncPracticeInstructionsRespText.started,EncPracticeInstructionsResp.started,EncPracticeInstructionsResp.keys,EncPracticeInstructionsResp.rt,EncPracticeInstructions2Text.started,EncPracticeInstructions2Resp.started,EncPracticeInstructions2Resp.keys,EncPracticeInstructions2Resp.rt,EncPractice1Stim.started,EncPractice1Resp.started,EncPractice1RespText.started,EncPractice1Resp.keys,EncPractice1Resp.corr,EncPractice1Resp.rt,EncPractice1Feedback.started,EncPractice1FeedbackResp.started,EncPractice1FeedbackResp.keys,EncPractice1FeedbackResp.rt,EncImage.started,EncTrialRespText.started,EncTrialResp.started,EncTrialRespText.stopped,EncTrialResp.stopped,EncTrialResp.keys,EncTrialResp.corr,EncTrialResp.rt,EncPracticeEndText.started,EncPracticeEndResp.started,participant,session,date,expName,psychopyVersion,frameRate,
,,,,,,,,,,,,,,,,,,,,,,,,,,,,11.022450415999629,11.022450415999629,space,2.504787416983163,,,,,,,,,,,,,,,,,,,,,,,,,,,,,,,,,,,,,,,,,,,,,,,,,,,,,,,,,,,,,,,,,,,,,,,,,,,,,,,,,,,,,,,,,,,,,,,,,,,,,,,,,999,001,2025-02-18_09h21.51.628,RetGoals_V1,2022.2.5,None,
,,,,,,,,,,,,,,,,,,,,,,,,,,,,,,,,13.57509108298109,13.57509108298109,1,1.4364062089880463,,,,,,,,,,,,,,,,,,,,,,,,,,,,,,,,,,,,,,,,,,,,,,,,,,,,,,,,,,,,,,,,,,,,,,,,,,,,,,,,,,,,,,,,,,,,,,,,,,,,,999,001,2025-02-18_09h21.51.628,RetGoals_V1,2022.2.5,None,
,,,,,,,,,,,,,,,,,,,,,,,,,,,,,,,,,,,,15.039924249984324,15.039924249984324,15.039924249984324,15.039924249984324,space,1.2089277500053868,,,,,,,,,,,,,,,,,,,,,,,,,,,,,,,,,,,,,,,,,,,,,,,,,,,,,,,,,,,,,,,,,,,,,,,,,,,,,,,,,,,,,,,,,,,,,,,999,001,2025-02-18_09h21.51.628,RetGoals_V1,2022.2.5,None,
,,,,,,,,,,,,,,,,,,,,,,,,,,,,,,,,,,,,,,,,,,16.281759415986016,16.281759415986016,1,1.251102041976992,,,,,,,,,,,,,,,,,,,,,,,,,,,,,,,,,,,,,,,,,,,,,,,,,,,,,,,,,,,,,,,,,,,,,,,,,,,,,,,,,,,,,,,,,,,999,001,2025-02-18_09h21.51.628,RetGoals_V1,2022.2.5,None,
,,,,,,,,,,,,,,,,,,,,,,,,,,,,,,,,,,,,,,,,,,,,,,3,ExAttn_Stim.136.jpeg,2,squares,8,17.615943999990122,17.615943999990122,17.615943999990122,19.05165074998513,4,0,1.8735315419908147,,,,,,,,,,,,,,,,,,,,,,,,,,,,,,,,,,,,,,,,,,,,,,,,,,,,,,,,,,,,,,,,,,,,,,,,,,,,,,,999,001,2025-02-18_09h21.51.628,RetGoals_V1,2022.2.5,None,
,,,,,,,,,,,,,,,,,,,,,,,,,,,,,,,,,,,,,,,,,,,,,,,,,,,,,,,,,,19.55443879100494,19.55443879100494,1,4.16487062498345,,,,,,,,,,,,,,,,,,,,,,,,,,,,,,,,,,,,,,,,,,,,,,,,,,,,,,,,,,,,,,,,,,,,,,,,,,,999,001,2025-02-18_09h21.51.628,RetGoals_V1,2022.2.5,None,
,,,,,,,,,,,,,,,,0,0,0,0,,,,,,,,,,,,,,,,,,,,,,,,,,,2,ExAttn_Stim.052.jpeg,0,circles,7,,,,,,,,,,,,23.73962649999885,24.303011499985587,24.303011499985587,25.717980082990834,25.717980082990834,2,1,0.36407008397509344,,,,,,,,,,,,,,,,,,,,,,,,,,,,,,,,,,,,,,,,,,,,,,,,,,,,,,,,,,,,,,,,,,,999,001,2025-02-18_09h21.51.628,RetGoals_V1,2022.2.5,None,
,,,,,,,,,,,,,,,,1,0,1,0,,,,,,,,,,,,,,,,,,,,,,,,,,,3,ExAttn_Stim.247.jpeg,1,diamonds,8,,,,,,,,,,,,26.106396999995923,26.642127833009,26.642127833009,28.08376495799166,28.08376495799166,3,1,1.191704374999972,,,,,,,,,,,,,,,,,,,,,,,,,,,,,,,,,,,,,,,,,,,,,,,,,,,,,,,,,,,,,,,,,,,999,001,2025-02-18_09h21.51.628,RetGoals_V1,2022.2.5,None,
,,,,,,,,,,,,,,,,2,0,2,0,,,,,,,,,,,,,,,,,,,,,,,,,,,2,ExAttn_Stim.256.jpeg,2,diamonds,8,,,,,,,,,,,,29.306275415990967,29.833663166005863,29.833663166005863,31.282934540999122,31.282934540999122,3,0,0.40095116800512187,,,,,,,,,,,,,,,,,,,,,,,,,,,,,,,,,,,,,,,,,,,,,,,,,,,,,,,,,,,,,,,,,,,999,001,2025-02-18_09h21.51.628,RetGoals_V1,2022.2.5,None,
,,,,,,,,,,,,,,,,3,0,3,0,,,,,,,,,,,,,,,,,,,,,,,,,,,2,ExAttn_Stim.188.jpeg,1,stars,8,,,,,,,,,,,,31.70613604100072,32.23378799998318,32.23378799998318,33.68496812498779,33.68496812498779,2,1,0.362294333986938,,,,,,,,,,,,,,,,,,,,,,,,,,,,,,,,,,,,,,,,,,,,,,,,,,,,,,,,,,,,,,,,,,,999,001,2025-02-18_09h21.51.628,RetGoals_V1,2022.2.5,None,
,,,,,,,,,,,,,,,,,,,,,,,,,,,,,,,,,,,,,,,,,,,,,,,,,,,,,,,,,,,,,,,,,,,,,,34.07290491598542,34.07290491598542,1,2.313900000997819,,,,,,,,,,,,,,,,,,,,,,,,,,,,,,,,,,,,,,,,,,,,,,,,,,,,,,,,,,,,,,,999,001,2025-02-18_09h21.51.628,RetGoals_V1,2022.2.5,None,
,,,,,,,,,,,,,,,,,,,,,,,,,,,,,,,,,,,,,,,,,,,,,,,,,,,,,,,,,,,,,,,,,,,,,,,,,,36.40529295799206,36.40529295799206,36.40529295799206,36.40529295799206,space,2.277325709001161,,,,,,,,,,,,,,,,,,,,,,,,,,,,,,,,,,,,,,,,,,,,,,,,,,,,,,,,,999,001,2025-02-18_09h21.51.628,RetGoals_V1,2022.2.5,None,
,,,,,,,,,,,,,,,,,,,,,,,,,,,,,,,,,,,,,,,,,,,,,,,,,,,,,,,,,,,,,,,,,,,,,,,,,,,,,,,,38.706148750003194,38.706148750003194,1,1.866859667992685,,,,,,,,,,,,,,,,,,,,,,,,,,,,,,,,,,,,,,,,,,,,,,,,,,,,,999,001,2025-02-18_09h21.51.628,RetGoals_V1,2022.2.5,None,
,,,,,,,,,,,,,,,,,,,,,,,,,,,,,,,,,,,,,,,,,,,,,,3,InternTask.136.jpeg,0,addsub,,,,,,,,,,,,,,,,,,,,,,,,,,,,,,,,,,,0,40.62936295798863,40.62936295798863,42.0833541250031,3,1,1.9011084169906098,,,,,,,,,,,,,,,,,,,,,,,,,,,,,,,,,,,,,,,,,,,,,,999,001,2025-02-18_09h21.51.628,RetGoals_V1,2022.2.5,None,
,,,,,,,,,,,,,,,,,,,,,,,,,,,,,,,,,,,,,,,,,,,,,,,,,,,,,,,,,,,,,,,,,,,,,,,,,,,,,,,,,,,,,,,,,,,42.5751529999834,42.5751529999834,1,2.2383634589787107,,,,,,,,,,,,,,,,,,,,,,,,,,,,,,,,,,,,,,,,,,999,001,2025-02-18_09h21.51.628,RetGoals_V1,2022.2.5,None,
,,,,,,,,,,,,,,,,,,,,0,0,0,0,,,,,,,,,,,,,,,,,,,,,,,3,InternTask.052.jpeg,0,addadd,,,,,,,,,,,,,44.8397683329822,,,,,,,,,,,,,,,,,,,,,,0,,,,,,,,,,,45.37318479100941,46.81738120800583,46.81738120800583,3,1,0.35754529197583906,,,,,,,,,,,,,,,,,,,,,,,,,,,,,,,,,,,,999,001,2025-02-18_09h21.51.628,RetGoals_V1,2022.2.5,None,
,,,,,,,,,,,,,,,,,,,,1,0,1,0,,,,,,,,,,,,,,,,,,,,,,,3,InternTask.247.jpeg,1,subsub,,,,,,,,,,,,,47.20603737499914,,,,,,,,,,,,,,,,,,,,,,0,,,,,,,,,,,47.75175062500057,49.189828208007384,49.189828208007384,3,1,0.45001587600563653,,,,,,,,,,,,,,,,,,,,,,,,,,,,,,,,,,,,999,001,2025-02-18_09h21.51.628,RetGoals_V1,2022.2.5,None,
,,,,,,,,,,,,,,,,,,,,2,0,2,0,,,,,,,,,,,,,,,,,,,,,,,2,InternTask.256.jpeg,12,subsub,,,,,,,,,,,,,49.65512108299299,,,,,,,,,,,,,,,,,,,,,,1,,,,,,,,,,,50.189259957987815,51.65018774999771,51.65018774999771,2,1,0.3735061670013238,50.189259957987815,,,,,,,,,,,,,,,,,,,,,,,,,,,,,,,,,,,999,001,2025-02-18_09h21.51.628,RetGoals_V1,2022.2.5,None,
,,,,,,,,,,,,,,,,,,,,3,0,3,0,,,,,,,,,,,,,,,,,,,,,,,4,InternTask.188.jpeg,13,subadd,,,,,,,,,,,,,52.05757908298983,,,,,,,,,,,,,,,,,,,,,,1,,,,,,,,,,,52.58657625000342,54.04774350000662,54.04774350000662,4,1,0.4523809169768356,52.58657625000342,,,,,,,,,,,,,,,,,,,,,,,,,,,,,,,,,,,999,001,2025-02-18_09h21.51.628,RetGoals_V1,2022.2.5,None,
,,,,,,,,,,,,,,,,,,,,,,,,,,,,,,,,,,,,,,,,,,,,,,,,,,,,,,,,,,,,,,,,,,,,,,,,,,,,,,,,,,,,,,,,,,,,,,,,,,,,,,54.522168249997776,54.522168249997776,1,1.573357749992283,,,,,,,,,,,,,,,,,,,,,,,,,,,,,,,999,001,2025-02-18_09h21.51.628,RetGoals_V1,2022.2.5,None,
,,,,,,,,,,,,,,,,,,,,,,,,,,,,,,,,,,,,,,,,,,,,,,,,,,,,,,,,,,,,,,,,,,,,,,,,,,,,,,,,,,,,,,,,,,,,,,,,,,,,,,,,,,56.1231286659895,56.1231286659895,56.1231286659895,56.1231286659895,space,4.79989866699907,,,,,,,,,,,,,,,,,,,,,,,,,999,001,2025-02-18_09h21.51.628,RetGoals_V1,2022.2.5,None,
,,,,,,,,,,,,,,,,,,,,,,,,,,,,,,,,,,,,,,,,,,,,,,,,,,,,,,,,,,,,,,,,,,,,,,,,,,,,,,,,,,,,,,,,,,,,,,,,,,,,,,,,,,,,,,,,60.939473624981474,60.939473624981474,1,1.5694737499870826,,,,,,,,,,,,,,,,,,,,,999,001,2025-02-18_09h21.51.628,RetGoals_V1,2022.2.5,None,
,,,,,,,,,,,,,,,,,,,,,,,,,,,,,,,,,,,,,,,,,,,,,,3,Encod_Stim.136.jpeg,,vehicle,,,,,,,,,,,,,,,,,,,,,,,,,,,,,,,,,,,,,,,,,,,,,,,,,,,,,,,,,,,,,,,,,,,62.57642308299546,64.0169181250094,64.0169181250094,3,1,0.7080981679901015,,,,,,,,,,,,,,,999,001,2025-02-18_09h21.51.628,RetGoals_V1,2022.2.5,None,
,,,,,,,,,,,,,,,,,,,,,,,,,,,,,,,,,,,,,,,,,,,,,,,,,,,,,,,,,,,,,,,,,,,,,,,,,,,,,,,,,,,,,,,,,,,,,,,,,,,,,,,,,,,,,,,,,,,,,,,,,,64.78955770799075,64.78955770799075,1,1.5224207510182168,,,,,,,,,,,999,001,2025-02-18_09h21.51.628,RetGoals_V1,2022.2.5,None,
,,,,,,,,,,,,,,,,,,,,,,,,0,0,0,0,,,,,,,,,,,,,,,,,,,4,Encod_Stim.052.jpeg,,vehicle,,,,,,,,,,,,,66.33962916600285,,,,,,,,,,,,,,,,,,,,,,,,,,,,,,,,,,,,,,,,,,,,,,,,,,,,,,,,,,,,,,,,66.88537162498687,68.3172435000015,68.3172435000015,69.81522591598332,69.81522591598332,4,1,0.7394935009942856,,,999,001,2025-02-18_09h21.51.628,RetGoals_V1,2022.2.5,None,
,,,,,,,,,,,,,,,,,,,,,,,,1,0,1,0,,,,,,,,,,,,,,,,,,,2,Encod_Stim.247.jpeg,,building,,,,,,,,,,,,,69.83966945798602,,,,,,,,,,,,,,,,,,,,,,,,,,,,,,,,,,,,,,,,,,,,,,,,,,,,,,,,,,,,,,,,70.37522716599051,71.81618274998618,71.81618274998618,73.31515937499353,73.31515937499353,2,1,0.4575744589965325,,,999,001,2025-02-18_09h21.51.628,RetGoals_V1,2022.2.5,None,
,,,,,,,,,,,,,,,,,,,,,,,,2,0,2,0,,,,,,,,,,,,,,,,,,,3,Encod_Stim.256.jpeg,,building,,,,,,,,,,,,,73.33968354100944,,,,,,,,,,,,,,,,,,,,,,,,,,,,,,,,,,,,,,,,,,,,,,,,,,,,,,,,,,,,,,,,73.87202308300766,75.31616679098806,75.31616679098806,76.8133333750011,76.8133333750011,3,1,1.4248243749898393,,,999,001,2025-02-18_09h21.51.628,RetGoals_V1,2022.2.5,None,
,,,,,,,,,,,,,,,,,,,,,,,,3,0,3,0,,,,,,,,,,,,,,,,,,,3,Encod_Stim.188.jpeg,,building,,,,,,,,,,,,,76.83952145799412,,,,,,,,,,,,,,,,,,,,,,,,,,,,,,,,,,,,,,,,,,,,,,,,,,,,,,,,,,,,,,,,77.37383620798937,78.81623116598348,78.81623116598348,80.31490216599195,80.31490216599195,4,0,0.9506481669959612,,,999,001,2025-02-18_09h21.51.628,RetGoals_V1,2022.2.5,None,
,,,,,,,,,,,,,,,,,,,,,,,,,,,,,,,,,,,,,,,,,,,,,,,,,,,,,,,,,,,,,,,,,,,,,,,,,,,,,,,,,,,,,,,,,,,,,,,,,,,,,,,,,,,,,,,,,,,,,,,,,,,,,,,,,,,,,,80.3397569579829,80.3397569579829,,,,,,,
