EALoadLoop.thisRepN,EALoadLoop.thisTrialN,EALoadLoop.thisN,EALoadLoop.thisIndex,EncLoadLoop.thisRepN,EncLoadLoop.thisTrialN,EncLoadLoop.thisN,EncLoadLoop.thisIndex,IALoadLoop.thisRepN,IALoadLoop.thisTrialN,IALoadLoop.thisN,IALoadLoop.thisIndex,RetLoadLoop.thisRepN,RetLoadLoop.thisTrialN,RetLoadLoop.thisN,RetLoadLoop.thisIndex,EAPractice2Trials.thisRepN,EAPractice2Trials.thisTrialN,EAPractice2Trials.thisN,EAPractice2Trials.thisIndex,IAPractice2Trials.thisRepN,IAPractice2Trials.thisTrialN,IAPractice2Trials.thisN,IAPractice2Trials.thisIndex,EncPractice2Trials.thisRepN,EncPractice2Trials.thisTrialN,EncPractice2Trials.thisN,EncPractice2Trials.thisIndex,welcomeText.started,welcomeKey.started,welcomeKey.keys,welcomeKey.rt,welcomeText2.started,welcomeKey2.started,welcomeKey2.keys,welcomeKey2.rt,EAPracticeText1.started,EAPracticeText2.started,EAPracticeRespText.started,EAPracticeKey.started,EAPracticeKey.keys,EAPracticeKey.rt,EAPractice2Text.started,EAPractice2Key.started,EAPractice2Key.keys,EAPractice2Key.rt,corr_key,stim_name,magnitude,stim_spec,num_big,EAPractice1Text1.started,EAPractice1Stim.started,EAPractice1Resp.started,EAPractice1Text2.started,EAPractice1Resp.keys,EAPractice1Resp.corr,EAPractice1Resp.rt,EAPostPractice1Text.started,EAPostPractice1Resp.started,EAPostPractice1Resp.keys,EAPostPractice1Resp.rt,FixCross.started,FixCross.stopped,EATrialText1.started,EATrialStim.started,EATrialText2.started,EATrialResp.started,EATrialResp.keys,EATrialResp.corr,EATrialResp.rt,EAPracticeEndText.started,EAPracticeEndKey.started,EAPracticeEndKey.keys,EAPracticeEndKey.rt,IAPracticeInstructions1Text1.started,IAPracticeInstructions1Text2.started,IAPracticeInstructions1RespText.started,IAPracticeInstructions1Resp.started,IAPracticeInstructions1Resp.keys,IAPracticeInstructions1Resp.rt,IAPracticeInstructions2Text.started,IAPracticeInstructions2Resp.started,IAPracticeInstructions2Resp.keys,IAPracticeInstructions2Resp.rt,has_neg,IAPractice1Stim.started,IAPractice1Resp.started,IAPractice1Text1.started,IAPractice1Resp.keys,IAPractice1Resp.corr,IAPractice1Resp.rt,IAPractice1Feedback.started,IAPostPractice1Resp.started,IAPostPractice1Resp.keys,IAPostPractice1Resp.rt,IATrialStim.started,IATrialRespText.started,IATrialResp.started,IATrialResp.keys,IATrialResp.corr,IATrialResp.rt,IAPracticeEndText.started,IAPracticeEndResp.started,IAPracticeEndResp.keys,IAPracticeEndResp.rt,EncPracticeInstructionsText1.started,EncPracticeInstructionsText2.started,EncPracticeInstructionsRespText.started,EncPracticeInstructionsResp.started,EncPracticeInstructionsResp.keys,EncPracticeInstructionsResp.rt,EncPracticeInstructions2Text.started,EncPracticeInstructions2Resp.started,EncPracticeInstructions2Resp.keys,EncPracticeInstructions2Resp.rt,EncPractice1Stim.started,EncPractice1Resp.started,EncPractice1RespText.started,EncPractice1Resp.keys,EncPractice1Resp.corr,EncPractice1Resp.rt,EncPractice1Feedback.started,EncPractice1FeedbackResp.started,EncPractice1FeedbackResp.keys,EncPractice1FeedbackResp.rt,EncImage.started,EncTrialRespView.started,EncTrialRespText.started,EncTrialResp.started,EncTrialResp.keys,EncTrialResp.corr,EncTrialResp.rt,participant,session,date,expName,psychopyVersion,frameRate,
,,,,,,,,,,,,,,,,,,,,,,,,,,,,10.65053979199729,10.65053979199729,space,0.4623287499998696,,,,,,,,,,,,,,,,,,,,,,,,,,,,,,,,,,,,,,,,,,,,,,,,,,,,,,,,,,,,,,,,,,,,,,,,,,,,,,,,,,,,,,,,,,,,,,,,,,,,,,999,001,2025-02-18_09h28.50.140,RetGoals_V1,2022.2.5,None,
,,,,,,,,,,,,,,,,,,,,,,,,,,,,,,,,11.177472667011898,11.177472667011898,1,0.3622847079823259,,,,,,,,,,,,,,,,,,,,,,,,,,,,,,,,,,,,,,,,,,,,,,,,,,,,,,,,,,,,,,,,,,,,,,,,,,,,,,,,,,,,,,,,,,,,,,,,,,999,001,2025-02-18_09h28.50.140,RetGoals_V1,2022.2.5,None,
,,,,,,,,,,,,,,,,,,,,,,,,,,,,,,,,,,,,11.54979375001858,11.54979375001858,11.54979375001858,11.54979375001858,space,0.4846931670035701,,,,,,,,,,,,,,,,,,,,,,,,,,,,,,,,,,,,,,,,,,,,,,,,,,,,,,,,,,,,,,,,,,,,,,,,,,,,,,,,,,,,,,,,,,,,999,001,2025-02-18_09h28.50.140,RetGoals_V1,2022.2.5,None,
,,,,,,,,,,,,,,,,,,,,,,,,,,,,,,,,,,,,,,,,,,12.055428250023397,12.055428250023397,1,0.429023042001063,,,,,,,,,,,,,,,,,,,,,,,,,,,,,,,,,,,,,,,,,,,,,,,,,,,,,,,,,,,,,,,,,,,,,,,,,,,,,,,,,,,,,,,,999,001,2025-02-18_09h28.50.140,RetGoals_V1,2022.2.5,None,
,,,,,,,,,,,,,,,,,,,,,,,,,,,,,,,,,,,,,,,,,,,,,,4,ExAttn_Stim.258.jpeg,2,diamonds,8,12.553482334013097,12.553482334013097,12.553482334013097,13.989405291998992,4,1,4.524397583998507,,,,,,,,,,,,,,,,,,,,,,,,,,,,,,,,,,,,,,,,,,,,,,,,,,,,,,,,,,,,,,,,,,,,,,,,,,,,999,001,2025-02-18_09h28.50.140,RetGoals_V1,2022.2.5,None,
,,,,,,,,,,,,,,,,,,,,,,,,,,,,,,,,,,,,,,,,,,,,,,,,,,,,,,,,,,17.121378834010102,17.121378834010102,1,1.0094547089829575,,,,,,,,,,,,,,,,,,,,,,,,,,,,,,,,,,,,,,,,,,,,,,,,,,,,,,,,,,,,,,,,,,,,,,,,999,001,2025-02-18_09h28.50.140,RetGoals_V1,2022.2.5,None,
,,,,,,,,,,,,,,,,0,0,0,0,,,,,,,,,,,,,,,,,,,,,,,,,,,2,ExAttn_Stim.114.jpeg,0,triangles,7,,,,,,,,,,,,18.159079083998222,18.71130875000381,18.71130875000381,18.71130875000381,20.155845125002088,20.155845125002088,2,1,0.3609096670115832,,,,,,,,,,,,,,,,,,,,,,,,,,,,,,,,,,,,,,,,,,,,,,,,,,,,,,,,,,,,,,,999,001,2025-02-18_09h28.50.140,RetGoals_V1,2022.2.5,None,
,,,,,,,,,,,,,,,,1,0,1,0,,,,,,,,,,,,,,,,,,,,,,,,,,,3,ExAttn_Stim.290.jpeg,0,diamonds,6,,,,,,,,,,,,20.54394191701431,,21.078293209022377,21.078293209022377,22.520327625010395,22.520327625010395,4,0,0.3816943750134669,,,,,,,,,,,,,,,,,,,,,,,,,,,,,,,,,,,,,,,,,,,,,,,,,,,,,,,,,,,,,,,999,001,2025-02-18_09h28.50.140,RetGoals_V1,2022.2.5,None,
,,,,,,,,,,,,,,,,2,0,2,0,,,,,,,,,,,,,,,,,,,,,,,,,,,3,ExAttn_Stim.111.jpeg,0,triangles,7,,,,,,,,,,,,22.92874450000818,,23.474369667004794,23.474369667004794,24.921741917001782,24.921741917001782,3,1,0.8824352499796078,,,,,,,,,,,,,,,,,,,,,,,,,,,,,,,,,,,,,,,,,,,,,,,,,,,,,,,,,,,,,,,999,001,2025-02-18_09h28.50.140,RetGoals_V1,2022.2.5,None,
,,,,,,,,,,,,,,,,3,0,3,0,,,,,,,,,,,,,,,,,,,,,,,,,,,3,ExAttn_Stim.083.jpeg,1,triangles,6,,,,,,,,,,,,25.827479458996095,26.360991459019715,26.360991459019715,26.360991459019715,27.82201829200494,27.82201829200494,2,0,0.4339759169961326,,,,,,,,,,,,,,,,,,,,,,,,,,,,,,,,,,,,,,,,,,,,,,,,,,,,,,,,,,,,,,,999,001,2025-02-18_09h28.50.140,RetGoals_V1,2022.2.5,None,
,,,,,,,,,,,,,,,,,,,,,,,,,,,,,,,,,,,,,,,,,,,,,,,,,,,,,,,,,,,,,,,,,,,,,,,28.28729616702185,28.28729616702185,1,1.1177989999996498,,,,,,,,,,,,,,,,,,,,,,,,,,,,,,,,,,,,,,,,,,,,,,,,,,,,,,,,,,,999,001,2025-02-18_09h28.50.140,RetGoals_V1,2022.2.5,None,
,,,,,,,,,,,,,,,,,,,,,,,,,,,,,,,,,,,,,,,,,,,,,,,,,,,,,,,,,,,,,,,,,,,,,,,,,,,29.428311084018787,29.428311084018787,29.428311084018787,29.428311084018787,space,0.6957286250253674,,,,,,,,,,,,,,,,,,,,,,,,,,,,,,,,,,,,,,,,,,,,,,,,,,,,,999,001,2025-02-18_09h28.50.140,RetGoals_V1,2022.2.5,None,
,,,,,,,,,,,,,,,,,,,,,,,,,,,,,,,,,,,,,,,,,,,,,,,,,,,,,,,,,,,,,,,,,,,,,,,,,,,,,,,,,30.14425400001346,30.14425400001346,1,0.7011124580167234,,,,,,,,,,,,,,,,,,,,,,,,,,,,,,,,,,,,,,,,,,,,,,,,,999,001,2025-02-18_09h28.50.140,RetGoals_V1,2022.2.5,None,
,,,,,,,,,,,,,,,,,,,,,,,,,,,,,,,,,,,,,,,,,,,,,,2,InternTask.258.jpeg,1,subsub,,,,,,,,,,,,,,,,,,,,,,,,,,,,,,,,,,,,0,30.906871500017587,30.906871500017587,32.35634787500021,2,1,1.7831374579982366,,,,,,,,,,,,,,,,,,,,,,,,,,,,,,,,,,,,,,,,,,999,001,2025-02-18_09h28.50.140,RetGoals_V1,2022.2.5,None,
,,,,,,,,,,,,,,,,,,,,,,,,,,,,,,,,,,,,,,,,,,,,,,,,,,,,,,,,,,,,,,,,,,,,,,,,,,,,,,,,,,,,,,,,,,,,32.741715959011344,32.741715959011344,1,0.6036021249892656,,,,,,,,,,,,,,,,,,,,,,,,,,,,,,,,,,,,,,999,001,2025-02-18_09h28.50.140,RetGoals_V1,2022.2.5,None,
,,,,,,,,,,,,,,,,,,,,0,0,0,0,,,,,,,,,,,,,,,,,,,,,,,4,InternTask.114.jpeg,4,addsub,,,,,,,,,,,,,33.36207125001238,33.89995204200386,,,,,,,,,,,,,,,,,,,,,,0,,,,,,,,,,,33.89995204200386,35.35461825001403,35.35461825001403,4,1,0.3833863339968957,,,,,,,,,,,,,,,,,,,,,,,,,,,,,,,,999,001,2025-02-18_09h28.50.140,RetGoals_V1,2022.2.5,None,
,,,,,,,,,,,,,,,,,,,,1,0,1,0,,,,,,,,,,,,,,,,,,,,,,,4,InternTask.290.jpeg,0,subsub,,,,,,,,,,,,,35.75666091701714,36.29793724999763,,,,,,,,,,,,,,,,,,,,,,0,,,,,,,,,,,36.29793724999763,37.75485966700944,37.75485966700944,4,1,0.38058758300030604,,,,,,,,,,,,,,,,,,,,,,,,,,,,,,,,999,001,2025-02-18_09h28.50.140,RetGoals_V1,2022.2.5,None,
,,,,,,,,,,,,,,,,,,,,2,0,2,0,,,,,,,,,,,,,,,,,,,,,,,3,InternTask.111.jpeg,1,addsub,,,,,,,,,,,,,38.15961333402083,38.691044917010004,,,,,,,,,,,,,,,,,,,,,,0,,,,,,,,,,,38.691044917010004,40.15326579200337,40.15326579200337,3,1,0.3663629160146229,,,,,,,,,,,,,,,,,,,,,,,,,,,,,,,,999,001,2025-02-18_09h28.50.140,RetGoals_V1,2022.2.5,None,
,,,,,,,,,,,,,,,,,,,,3,0,3,0,,,,,,,,,,,,,,,,,,,,,,,4,InternTask.083.jpeg,9,addsub,,,,,,,,,,,,,40.544213709014,,,,,,,,,,,,,,,,,,,,,,,0,,,,,,,,,,,41.06991162500344,42.52049737502239,42.52049737502239,4,1,0.293772542005172,,,,,,,,,,,,,,,,,,,,,,,,,,,,,,,,999,001,2025-02-18_09h28.50.140,RetGoals_V1,2022.2.5,None,
,,,,,,,,,,,,,,,,,,,,,,,,,,,,,,,,,,,,,,,,,,,,,,,,,,,,,,,,,,,,,,,,,,,,,,,,,,,,,,,,,,,,,,,,,,,,,,,,,,,,,,42.844425042014336,42.844425042014336,1,0.7349830000021029,,,,,,,,,,,,,,,,,,,,,,,,,,,,999,001,2025-02-18_09h28.50.140,RetGoals_V1,2022.2.5,None,
,,,,,,,,,,,,,,,,,,,,,,,,,,,,,,,,,,,,,,,,,,,,,,,,,,,,,,,,,,,,,,,,,,,,,,,,,,,,,,,,,,,,,,,,,,,,,,,,,,,,,,,,,,43.610799125017365,43.610799125017365,43.610799125017365,43.610799125017365,space,1.4770949999801815,,,,,,,,,,,,,,,,,,,,,,999,001,2025-02-18_09h28.50.140,RetGoals_V1,2022.2.5,None,
,,,,,,,,,,,,,,,,,,,,,,,,,,,,,,,,,,,,,,,,,,,,,,,,,,,,,,,,,,,,,,,,,,,,,,,,,,,,,,,,,,,,,,,,,,,,,,,,,,,,,,,,,,,,,,,,45.11922066702391,45.11922066702391,1,1.0926804579794407,,,,,,,,,,,,,,,,,,999,001,2025-02-18_09h28.50.140,RetGoals_V1,2022.2.5,None,
,,,,,,,,,,,,,,,,,,,,,,,,,,,,,,,,,,,,,,,,,,,,,,4,Encod_Stim.258.jpeg,,building,,,,,,,,,,,,,,,,,,,,,,,,,,,,,,,,,,,,,,,,,,,,,,,,,,,,,,,,,,,,,,,,,,,46.2822282499983,47.721893292007735,47.721893292007735,4,1,0.4695403749938123,,,,,,,,,,,,999,001,2025-02-18_09h28.50.140,RetGoals_V1,2022.2.5,None,
,,,,,,,,,,,,,,,,,,,,,,,,,,,,,,,,,,,,,,,,,,,,,,,,,,,,,,,,,,,,,,,,,,,,,,,,,,,,,,,,,,,,,,,,,,,,,,,,,,,,,,,,,,,,,,,,,,,,,,,,,,48.260421584011056,48.260421584011056,1,0.8774155839928426,,,,,,,,999,001,2025-02-18_09h28.50.140,RetGoals_V1,2022.2.5,None,
,,,,,,,,,,,,,,,,,,,,,,,,0,0,0,0,,,,,,,,,,,,,,,,,,,3,Encod_Stim.114.jpeg,,fruit,,,,,,,,,,,,,49.16007329200511,49.70511529201758,,,,,,,,,,,,,,,,,,,,,,,,,,,,,,,,,,,,,,,,,,,,,,,,,,,,,,,,,,,,,,,49.70511529201758,51.17024970901548,51.17024970901548,51.17024970901548,3,1,0.32903145797899924,999,001,2025-02-18_09h28.50.140,RetGoals_V1,2022.2.5,None,
,,,,,,,,,,,,,,,,,,,,,,,,1,0,1,0,,,,,,,,,,,,,,,,,,,4,Encod_Stim.290.jpeg,,vehicle,,,,,,,,,,,,,52.65897595899878,53.20474716700846,,,,,,,,,,,,,,,,,,,,,,,,,,,,,,,,,,,,,,,,,,,,,,,,,,,,,,,,,,,,,,,53.20474716700846,54.665269834018545,54.665269834018545,54.665269834018545,4,1,0.9297347090032417,999,001,2025-02-18_09h28.50.140,RetGoals_V1,2022.2.5,None,
,,,,,,,,,,,,,,,,,,,,,,,,,,,,,,,,,,,,,,,,,,,,,,,,,,,,,,,,,,,,,,56.15889375002007,,,,,,,,,,,,,,,,,,,,,,,,,,,,,,,,,,,,,,,,,,,,,,,,,,,,,,,,,,,,,,,,,,,,,,,,,,,,,
